File: scratch/KRAMS/src/apps/scratch/axel/tensile_tests/pullout02.raw
"Prüfungstyp";"Manuell"
"Methodenname:";"C:\INSTRON\USER\TEMPLATE\Zugversuch Textilbeton.mtM"
"Name:";"Zugversuche Carbon"
"Prüfer";""
"Firma:";""
"Abteilung:";""
"Prüfdatum:";"01.01.97"
"Temperatur:";""
"Feuchtigkeit:";""
"Anmerkung 1:";""
"Anmerkung 2:";""
"Anmerkung 3:";""
"Geometrie:";"Rectangular"
"Probe";1
"Probenname:";"V19-Z-3-1"
"Breite:";100;"mm"
"Dicke:";10;"mm"
"Länge:";900;"mm"
"Durchmesser:";1.000000;"mm"
"Innendurchmesser:";0.500000;"mm"
"Außendurchm.:";1.000000;"mm"
"Wandstärke:";0.500000;"mm"
"Querschnitt:";1000;"mm*mm"
"Lineare Dichte:";1.000000;"den"
"Schlittengewicht:";9.806650;"N"
"Lade-Spannweite:";0.000000;"mm"
"Unterstütz.-Spannweite:";1.000000;"mm"
"Spannweitenverhältnis:";"2"
"Vorrichtungstyp:";"3-point"
"Kommentar:";""
"Eingefügt"
"Endbreite:";100;"mm"
"Enddicke:";10;"mm"
"Endlänge:";900;"mm"
"Enddurchmesser:";1.000000;"mm"
"Endinnendurchmesser:";0.500000;"mm"
"Endaußendurchmesser:";1.000000;"mm"
"Endwandstärke:";0.500000;"mm"
"Endquerschnitt:";1000;"mm*mm"
"Lineare Enddichte:";1.000000;"den"
"Zeit sec";"Verformung mm";"Dehnung 1 %";"Kraft N";"Spannung MPa";"Anz. der Zykl. ";"Zyklenzahl gesamt ";"Wiederholungswert ";"Dehnung [Trav.] %";"Tatsächliche dehnung %";"Zähigkeit gf/tex";"Tatsächliche spannung Pa"
0;0;-0,008054383;-44,83726;-0,04483726;0;0;0;0;0;-41149,15;-44837,26
0,5;0,001136;-0,008415371;-43,95267;-0,04395267;0;0;0;0,0001262223;0,0001262222;-40337,32;-43952,72
1;0,002750317;-0,008595291;-43,61447;-0,04361447;0;0;0;0,0003055907;0,0003055903;-40026,95;-43614,6
1,5;0,005082107;-0,008535926;-38,60499;-0,03860499;0;0;0;0,0005646786;0,0005646769;-35429,52;-38605,21
2;0,006696423;-0,008488692;-37,41436;-0,03741436;0;0;0;0,0007440471;0,0007440443;-34336,82;-37414,64
2,5;0,008370529;-0,008501887;-35,58375;-0,03558375;0;0;0;0,0009300588;0,0009300544;-32656,8;-35584,09
3;0,009925055;-0,008651842;-34,53007;-0,03453007;0;0;0;0,001102784;0,001102778;-31689,78;-34530,45
3,5;0,01153937;-0,008446015;-33,33278;-0,03333278;0;0;0;0,001282152;0,001282144;-30590,98;-33333,21
4;0,01327327;-0,008617355;-32,20274;-0,03220274;0;0;0;0,001474808;0,001474797;-29553,89;-32203,22
4,5;0,01506695;-0,008487043;-30,54021;-0,03054021;0;0;0;0,001674106;0,001674092;-28028,11;-30540,72
5;0,01668127;-0,008526884;-29,89279;-0,02989279;0;0;0;0,001853474;0,001853457;-27433,95;-29893,35
5,5;0,01841516;-0,008607833;-28,20774;-0,02820774;0;0;0;0,002046129;0,002046108;-25887,5;-28208,32
6;0,0199099;-0,008713106;-28,32281;-0,02832281;0;0;0;0,002212211;0,002212187;-25993,1;-28323,43
6,5;0,02152422;-0,008511868;-27,25928;-0,02725928;0;0;0;0,00239158;0,002391551;-25017,06;-27259,93
7;0,02325811;-0,00879981;-26,13399;-0,02613399;0;0;0;0,002584235;0,002584201;-23984,33;-26134,67
7,5;0,02499201;-0,008546563;-24,89202;-0,02489202;0;0;0;0,00277689;0,002776851;-22844,52;-24892,71
8;0,0267259;-0,008623558;-23,15093;-0,02315093;0;0;0;0,002969545;0,002969501;-21246,64;-23151,62
8,5;0,02834022;-0,008702515;-22,36584;-0,02236584;0;0;0;0,003148913;0,003148863;-20526,13;-22366,55
9;0,02995454;-0,008686461;-21,49735;-0,02149735;0;0;0;0,003328282;0,003328226;-19729,08;-21498,07
9,5;0,03150906;-0,00858949;-21,77603;-0,02177603;0;0;0;0,003501007;0,003500946;-19984,84;-21776,79
10;0,03324296;-0,008863262;-19,95389;-0,0199539;0;0;0;0,003693662;0,003693593;-18312,58;-19954,63
10,5;0,03497685;-0,008548701;-18,28994;-0,01828994;0;0;0;0,003886317;0,003886241;-16785,49;-18290,65
11;0,03671075;-0,008786775;-17,57724;-0,01757724;0;0;0;0,004078972;0,004078889;-16131,41;-17577,95
11,5;0,03838485;-0,00882839;-16,45023;-0,01645023;0;0;0;0,004264983;0,004264893;-15097,11;-16450,93
12;0,03993938;-0,008727813;-15,75593;-0,01575593;0;0;0;0,004437709;0,00443761;-14459,92;-15756,63
12,5;0,0414939;-0,00877108;-16,26303;-0,01626302;0;0;0;0,004610434;0,004610327;-14925,3;-16263,78
13;0,0432278;-0,008951763;-15,50613;-0,01550613;0;0;0;0,004803089;0,004802974;-14230,66;-15506,87
13,5;0,04502149;-0,008617039;-13,20254;-0,01320254;0;0;0;0,005002387;0,005002262;-12116,56;-13203,2
14;0,04669559;-0,008991291;-13,30855;-0,01330855;0;0;0;0,005188399;0,005188264;-12213,85;-13309,24
14,5;0,0483697;-0,008858683;-11,16256;-0,01116256;0;0;0;0,005374411;0,005374267;-10244,38;-11163,16
15;0,04998401;-0,008780765;-11,31986;-0,01131986;0;0;0;0,005553779;0,005553625;-10388,74;-11320,49
15,5;0,05153854;-0,00897432;-11,19378;-0,01119378;0;0;0;0,005726505;0,005726341;-10273,03;-11194,42
16;0,05321265;-0,008887913;-10,45994;-0,01045994;0;0;0;0,005912516;0,005912342;-9599,55;-10460,55
16,5;0,05500633;-0,008703203;-9,223447;-0,009223447;0;0;0;0,006111815;0,006111628;-8464,769;-9224,011
17;0,05668044;-0,009116665;-8,27342;-0,00827342;0;0;0;0,006297826;0,006297628;-7592,887;-8273,941
17,5;0,05841433;-0,008868909;-7,588173;-0,007588173;0;0;0;0,006490482;0,006490271;-6964,004;-7588,665
18;0,06002865;-0,008964358;-6,492688;-0,006492688;0;0;0;0,00666985;0,006669627;-5958,629;-6493,121
18,5;0,06152339;-0,009126869;-7,064975;-0,007064975;0;0;0;0,006835932;0,006835699;-6483,843;-7065,458
19;0,06325728;-0,008866973;-5,958967;-0,005958967;0;0;0;0,007028586;0,007028339;-5468,81;-5959,386
19,5;0,06493139;-0,00893698;-5,017603;-0,005017603;0;0;0;0,007214599;0,007214339;-4604,878;-5017,965
20;0,06660549;-0,009148554;-4,229087;-0,004229087;0;0;0;0,00740061;0,007400336;-3881,221;-4229,4
20,5;0,06839917;-0,008778961;-2,873765;-0,002873765;0;0;0;0,007599908;0,007599619;-2637,382;-2873,983
21;0,07007328;-0,009191488;-2,219303;-0,002219303;0;0;0;0,007785921;0,007785617;-2036,753;-2219,476
21,5;0,07156802;-0,009099033;-2,461471;-0,002461471;0;0;0;0,007952002;0,007951686;-2259,002;-2461,667
22;0,07324213;-0,008918066;-1,417768;-0,001417768;0;0;0;0,008138014;0,008137683;-1301,149;-1417,883
22,5;0,07491623;-0,009173974;-0,7829807;-0,0007829807;0;0;0;0,008324025;0,008323678;-718,5763;-783,0459
23;0,07659034;-0,009096194;-0,6057102;-0,0006057102;0;0;0;0,008510037;0,008509675;-555,8873;-605,7617
23,5;0,07838402;-0,008837491;0,7728595;0,0007728595;0;0;0;0,008709336;0,008708957;709,2876;772,9268
24;0,07999834;-0,009253816;0,5187489;0,0005187489;0;0;0;0,008888705;0,00888831;476,0789;518,795
24,5;0,08167244;-0,008947625;1,065586;0,001065586;0;0;0;0,009074715;0,009074304;977,9358;1065,683
25;0,08322697;-0,009140151;1,261944;0,001261944;0;0;0;0,009247441;0,009247014;1158,142;1262,061
25,5;0,08490107;-0,009285114;2,400499;0,002400499;0;0;0;0,009433453;0,009433008;2203,045;2400,725
26;0,08663497;-0,00898653;3,450956;0,003450956;0;0;0;0,009626108;0,009625645;3167,096;3451,288
26,5;0,08836887;-0,009130196;3,429715;0,003429715;0;0;0;0,009818763;0,009818281;3147,603;3430,052
27;0,09004297;-0,009309513;4,135567;0,004135567;0;0;0;0,01000477;0,01000427;3795,394;4135,981
27,5;0,09165729;-0,008915032;4,673986;0,004673986;0;0;0;0,01018414;0,01018362;4289,525;4674,462
28;0,09321181;-0,009332062;5,194883;0,005194883;0;0;0;0,01035687;0,01035633;4767,576;5195,421
28,5;0,09488592;-0,00920886;5,452714;0,005452713;0;0;0;0,01054288;0,01054232;5004,198;5453,288
29;0,09661982;-0,009098901;5,777693;0,005777693;0;0;0;0,01073554;0,01073496;5302,447;5778,313
29,5;0,09835372;-0,009359654;6,570565;0,006570565;0;0;0;0,01092819;0,01092759;6030,101;6571,283
30;0,1000876;-0,009202646;8,537377;0,008537377;0;0;0;0,01112085;0,01112023;7835,132;8538,327
30,5;0,1017019;-0,008987136;7,936997;0,007936997;0;0;0;0,01130021;0,01129958;7284,136;7937,894
31;0,1032565;-0,00946072;8,157924;0,008157925;0;0;0;0,01147294;0,01147228;7486,891;8158,86
31,5;0,1048708;-0,00906024;8,038749;0,008038749;0;0;0;0,01165231;0,01165163;7377,518;8039,685
32;0,1066047;-0,00925866;9,902341;0,009902341;0;0;0;0,01184496;0,01184426;9087,82;9903,514
32,5;0,1083386;-0,009362543;9,458724;0,009458723;0;0;0;0,01203762;0,01203689;8680,692;9459,862
33;0,1100725;-0,009242157;11,23892;0,01123892;0;0;0;0,01223027;0,01222952;10314,46;11240,29
33,5;0,1116868;-0,009161437;11,27792;0,01127793;0;0;0;0,01240964;0,01240887;10350,25;11279,32
34;0,1133011;-0,009341378;11,75756;0,01175756;0;0;0;0,01258901;0,01258822;10790,44;11759,04
34,5;0,1148556;-0,009055092;11,59263;0,01159263;0;0;0;0,01276174;0,01276092;10639,07;11594,11
35;0,1165297;-0,009480468;11,77269;0,01177269;0;0;0;0,01294775;0,01294691;10804,32;11774,21
35,5;0,1183832;-0,00918104;13,31071;0,01331071;0;0;0;0,01315369;0,01315282;12215,83;13312,46
36;0,1200573;-0,009140061;14,45573;0,01445573;0;0;0;0,0133397;0,01333881;13266,67;14457,66
36,5;0,1216716;-0,009143944;14,59541;0,01459541;0;0;0;0,01351907;0,01351815;13394,86;14597,38
37;0,1233457;-0,009204916;14,34678;0,01434678;0;0;0;0,01370508;0,01370414;13166,68;14348,75
37,5;0,1249002;-0,009200614;14,78859;0,01478859;0;0;0;0,0138778;0,01387684;13572,14;14790,64
38;0,1265146;-0,009448015;14,54749;0,01454749;0;0;0;0,01405717;0,01405618;13350,88;14549,54
38,5;0,1283082;-0,008994048;15,62805;0,01562805;0;0;0;0,01425647;0,01425546;14342,56;15630,28
39;0,1299824;-0,00929195;15,81952;0,01581952;0;0;0;0,01444248;0,01444144;14518,27;15821,8
39,5;0,1317162;-0,00882817;17,09844;0,01709844;0;0;0;0,01463514;0,01463407;15692;17100,94
40;0,1333306;-0,009148974;17,40609;0,01740609;0;0;0;0,01481451;0,01481341;15974,35;17408,67
40,5;0,1348851;-0,0093078;17,07823;0,01707822;0;0;0;0,01498723;0,01498611;15673,45;17080,78
41;0,1365592;-0,009273622;17,24448;0,01724448;0;0;0;0,01517324;0,01517209;15826,03;17247,1
41,5;0,1382931;-0,009113074;19,05155;0,01905155;0;0;0;0,0153659;0,01536472;17484,45;19054,47
42;0,1399672;-0,009415228;18,8755;0,0188755;0;0;0;0,01555191;0,0155507;17322,89;18878,43
42,5;0,1417011;-0,008519745;19,88005;0,01988005;0;0;0;0,01574457;0,01574333;18244,81;19883,18
43;0,1433752;-0,009312875;20,14551;0,02014551;0;0;0;0,01593058;0,01592931;18488,44;20148,72
43,5;0,1449297;-0,009289823;19,88568;0,01988568;0;0;0;0,0161033;0,01610201;18249,97;19888,88
44;0,1464843;-0,009132597;20,11463;0,02011463;0;0;0;0,01627603;0,0162747;18460,09;20117,9
44,5;0,1482779;-0,009402914;19,95777;0,01995777;0;0;0;0,01647533;0,01647397;18316,13;19961,06
45;0,149952;-0,009263864;20,56828;0,02056828;0;0;0;0,01666134;0,01665995;18876,43;20571,71
45,5;0,1516859;-0,008439497;21,30203;0,02130203;0;0;0;0,01685399;0,01685257;19549,82;21305,62
46;0,15336;-0,009453429;22,34456;0,02234456;0;0;0;0,01704;0,01703855;20506,6;22348,37
46,5;0,1549744;-0,009039353;22,10934;0,02210934;0;0;0;0,01721937;0,01721789;20290,73;22113,15
47;0,1565289;-0,009342404;22,01229;0,02201229;0;0;0;0,0173921;0,01739059;20201,66;22016,12
47,5;0,1582628;-0,009228679;22,31412;0,02231412;0;0;0;0,01758475;0,01758321;20478,66;22318,04
48;0,1599967;-0,009145284;22,55467;0,02255467;0;0;0;0,01777741;0,01777583;20699,43;22558,68
48,5;0,1616708;-0,00859596;22,9191;0,0229191;0;0;0;0,01796342;0,01796181;21033,88;22923,21
49;0,1633449;-0,009330507;23,25979;0,02325979;0;0;0;0,01814943;0,01814778;21346,54;23264,01
49,5;0,165019;-0,00904673;24,1803;0,0241803;0;0;0;0,01833544;0,01833376;22191,34;24184,74
50;0,1665735;-0,009489938;23,8171;0,0238171;0;0;0;0,01850817;0,01850646;21858,01;23821,51
50,5;0,1682476;-0,009026551;23,88175;0,02388175;0;0;0;0,01869418;0,01869243;21917,35;23886,22
51;0,1699217;-0,009189579;24,68603;0,02468603;0;0;0;0,01888019;0,01887841;22655,47;24690,69
51,5;0,1715958;-0,009260339;24,20712;0,02420712;0;0;0;0,0190662;0,01906439;22215,96;24211,74
52;0,1733895;-0,009163929;26,16327;0,02616327;0;0;0;0,0192655;0,01926365;24011,2;26168,31
52,5;0,1750636;-0,009198948;25,72352;0,02572352;0;0;0;0,01945151;0,01944962;23607,62;25728,52
53;0,1765584;-0,009371627;24,98683;0,02498683;0;0;0;0,0196176;0,01961567;22931,53;24991,73
53,5;0,1782325;-0,008989233;25,36447;0,02536447;0;0;0;0,01980361;0,01980165;23278,11;25369,49
54;0,1799664;-0,009390422;25,87387;0,02587387;0;0;0;0,01999626;0,01999426;23745,6;25879,04
54,5;0,1815807;-0,00907729;26,29825;0,02629825;0;0;0;0,02017563;0,0201736;24135,08;26303,56
55;0,1834342;-0,009140174;27,23668;0,02723668;0;0;0;0,02038157;0,0203795;24996,31;27242,23
55,5;0,1849887;-0,009271054;26,88605;0,02688605;0;0;0;0,0205543;0,02055219;24674,53;26891,58
56;0,186603;-0,009112566;27,01144;0,02701144;0;0;0;0,02073367;0,02073152;24789,61;27017,04
56,5;0,1882173;-0,009184673;26,43891;0,02643891;0;0;0;0,02091304;0,02091085;24264,17;26444,44
57;0,1898914;-0,009405802;26,8189;0,0268189;0;0;0;0,02109905;0,02109682;24612,9;26824,56
57,5;0,1916253;-0,00897077;27,01472;0,02701472;0;0;0;0,0212917;0,02128944;24792,62;27020,47
58;0,1933592;-0,00935178;27,60952;0,02760952;0;0;0;0,02148436;0,02148205;25338,49;27615,46
58,5;0,1950333;-0,009114018;27,09739;0,02709739;0;0;0;0,02167037;0,02166802;24868,48;27103,26
59;0,1966476;-0,009150619;27,24451;0,02724451;0;0;0;0,02184974;0,02184735;25003,5;27250,46
59,5;0,1982022;-0,009271224;27,2356;0,0272356;0;0;0;0,02202246;0,02202004;24995,32;27241,6
60;0,1998763;-0,009224176;27,4762;0,0274762;0;0;0;0,02220847;0,02220601;25216,13;27482,3
60,5;0,2016102;-0,009017648;27,70702;0,02770702;0;0;0;0,02240113;0,02239862;25427,97;27713,22
61;0,2033441;-0,009431656;27,33265;0,02733265;0;0;0;0,02259379;0,02259123;25084,39;27338,83
61,5;0,2050182;-0,008983194;28,31019;0,02831019;0;0;0;0,0227798;0,0227772;25981,52;28316,64
62;0,2066923;-0,00926851;27,52764;0,02752764;0;0;0;0,02296581;0,02296317;25263,35;27533,96
62,5;0,2082468;-0,009208157;26,99368;0,02699368;0;0;0;0,02313853;0,02313586;24773,3;26999,92
63;0,2098611;-0,009115385;27,76364;0,02776364;0;0;0;0,0233179;0,02331518;25479,93;27770,12
63,5;0,211595;-0,009082697;27,78508;0,02778508;0;0;0;0,02351056;0,02350779;25499,61;27791,61
64;0,2133289;-0,009386703;27,79849;0,02779849;0;0;0;0,02370321;0,0237004;25511,92;27805,08
64,5;0,215003;-0,008861101;27,94395;0,02794395;0;0;0;0,02388922;0,02388637;25645,41;27950,63
65;0,2166771;-0,009372866;28,13321;0,02813321;0;0;0;0,02407524;0,02407234;25819,1;28139,98
65,5;0,2182316;-0,009132939;27,61642;0,02761642;0;0;0;0,02424796;0,02424502;25344,82;27623,12
66;0,2199058;-0,009175192;27,32913;0,02732913;0;0;0;0,02443397;0,02443099;25081,16;27335,81
66,5;0,2215799;-0,009188359;27,34445;0,02734445;0;0;0;0,02461998;0,02461695;25095,22;27351,18
67;0,2233138;-0,009309817;27,73506;0,02773506;0;0;0;0,02481264;0,02480956;25453,7;27741,94
67,5;0,2250477;-0,008929193;28,00821;0,02800821;0;0;0;0,02500529;0,02500217;25704,38;28015,21
68;0,2267218;-0,00943888;29,20241;0,02920241;0;0;0;0,02519131;0,02518813;26800,36;29209,77
68,5;0,2282763;-0,009065521;28,08965;0,02808965;0;0;0;0,02536403;0,02536082;25779,13;28096,78
69;0,2298308;-0,009215403;27,31141;0,02731141;0;0;0;0,02553676;0,0255335;25064,9;27318,39
69,5;0,2315647;-0,009227405;27,94581;0,02794581;0;0;0;0,02572941;0,0257261;25647,12;27953
70;0,2332986;-0,009295229;28,05798;0,02805799;0;0;0;0,02592207;0,02591871;25750,06;28065,26
70,5;0,2350923;-0,008915144;28,89383;0,02889383;0;0;0;0,02612136;0,02611795;26517,15;28901,38
71;0,2366468;-0,009412484;28,4371;0,0284371;0;0;0;0,02629409;0,02629063;26097,99;28444,57
71,5;0,2383209;-0,009076599;27,68206;0,02768206;0;0;0;0,0264801;0,0264766;25405,06;27689,39
72;0,2398754;-0,009215798;28,06626;0,02806626;0;0;0;0,02665283;0,02664927;25757,65;28073,74
72,5;0,2415496;-0,009186549;27,41131;0,02741131;0;0;0;0,02683884;0,02683524;25156,58;27418,66
73;0,2432834;-0,009347794;28,52553;0,02852554;0;0;0;0,02703149;0,02702784;26179,15;28533,25
73,5;0,2450173;-0,008924118;27,6916;0,0276916;0;0;0;0,02722415;0,02722044;25413,81;27699,14
74;0,2466914;-0,009436765;28,48496;0,02848496;0;0;0;0,02741016;0,0274064;26141,92;28492,77
74,5;0,2483655;-0,009085936;28,83148;0,02883148;0;0;0;0,02759617;0,02759236;26459,93;28839,43
75;0,2498603;-0,009246218;27,30921;0,02730921;0;0;0;0,02776225;0,0277584;25062,88;27316,79
75,5;0,2515344;-0,009249578;27,78665;0,02778665;0;0;0;0,02794827;0,02794436;25501,04;27794,41
76;0,2533281;-0,00940076;27,29683;0,02729683;0;0;0;0,02814756;0,0281436;25051,52;27304,51
76,5;0,2550022;-0,009009733;27,53136;0,02753136;0;0;0;0,02833358;0,02832956;25266,76;27539,16
77;0,2567361;-0,009446315;28,93753;0,02893753;0;0;0;0,02852623;0,02852216;26557,27;28945,79
77,5;0,2584102;-0,009157354;27,72997;0,02772997;0;0;0;0,02871224;0,02870812;25449,03;27737,93
78;0,2598451;-0,009264066;27,56528;0,02756528;0;0;0;0,02887168;0,02886751;25297,89;27573,24
78,5;0,261579;-0,009272744;27,12323;0,02712323;0;0;0;0,02906434;0,02906011;24892,2;27131,11
79;0,2632531;-0,009366971;27,80069;0,02780069;0;0;0;0,02925035;0,02924607;25513,94;27808,82
79,5;0,264987;-0,009111148;27,64222;0,02764222;0;0;0;0,02944301;0,02943867;25368,49;27650,35
80;0,2667807;-0,009470597;28,57061;0,02857061;0;0;0;0,0296423;0,02963791;26220,52;28579,08
80,5;0,268395;-0,009219839;28,60536;0,02860536;0;0;0;0,02982167;0,02981723;26252,41;28613,89
81;0,2698898;-0,009208022;27,70506;0,02770506;0;0;0;0,02998775;0,02998325;25426,17;27713,37
81,5;0,2715639;-0,009312522;27,21852;0,02721852;0;0;0;0,03017376;0,03016921;24979,65;27226,73
82;0,273238;-0,009373642;27,38737;0,02738737;0;0;0;0,03035977;0,03035517;25134,61;27395,69
82,5;0,2749718;-0,009084177;27,92163;0,02792163;0;0;0;0,03055243;0,03054776;25624,93;27930,16
83;0,2767058;-0,00951114;29,02323;0,02902323;0;0;0;0,03074509;0,03074036;26635,92;29032,16
83,5;0,2783799;-0,009310964;27,92692;0,02792691;0;0;0;0,0309311;0,03092631;25629,78;27935,55
84;0,2799344;-0,009276168;26,8375;0,0268375;0;0;0;0,03110382;0,03109899;24629,97;26845,85
84,5;0,2815487;-0,009441972;26,78773;0,02678773;0;0;0;0,03128319;0,0312783;24584,29;26796,11
85;0,2832228;-0,009401858;26,50587;0,02650587;0;0;0;0,0314692;0,03146425;24325,62;26514,21
85,5;0,2849567;-0,009127507;28,14363;0,02814363;0;0;0;0,03166186;0,03165685;25828,67;28152,54
86;0,2866906;-0,009500706;27,849;0,027849;0;0;0;0,03185451;0,03184944;25558,27;27857,87
86,5;0,2883647;-0,009271548;28,35634;0,02835634;0;0;0;0,03204052;0,03203539;26023,88;28365,42
87;0,289979;-0,009282792;27,12974;0,02712974;0;0;0;0,03221989;0,0322147;24898,17;27138,48
87,5;0,2915336;-0,00929524;26,75621;0,02675621;0;0;0;0,03239262;0,03238737;24555,37;26764,87
88;0,2932077;-0,009461725;27,44645;0,02744645;0;0;0;0,03257863;0,03257333;25188,83;27455,39
88,5;0,2949416;-0,009242145;27,43881;0,02743881;0;0;0;0,03277129;0,03276592;25181,82;27447,8
89;0,2966157;-0,009346224;27,5991;0,0275991;0;0;0;0,0329573;0,03295187;25328,92;27608,19
89,5;0,2984093;-0,009119801;29,10864;0,02910864;0;0;0;0,03315659;0,0331511;26714,29;29118,29
90;0,3000237;-0,009396599;27,56048;0,02756048;0;0;0;0,03333597;0,03333041;25293,48;27569,67
90,5;0,3015782;-0,009315645;26,88179;0,02688179;0;0;0;0,03350869;0,03350308;24670,62;26890,8
91;0,3032523;-0,009192556;27,51306;0,02751306;0;0;0;0,0336947;0,03368903;25249,96;27522,33
91,5;0,3049264;-0,009183242;27,53792;0,02753792;0;0;0;0,03388071;0,03387497;25272,78;27547,25
92;0,3066005;-0,009483392;27,64809;0,02764809;0;0;0;0,03406672;0,03406092;25373,88;27657,51
92,5;0,3083942;-0,009188364;27,28234;0,02728234;0;0;0;0,03426602;0,03426015;25038,22;27291,69
93;0,3100085;-0,009469417;27,36789;0,02736789;0;0;0;0,03444539;0,03443946;25116,73;27377,32
93,5;0,311563;-0,009232934;27,386;0,027386;0;0;0;0,03461811;0,03461212;25133,36;27395,48
94;0,3132371;-0,009340468;26,99431;0,02699431;0;0;0;0,03480412;0,03479807;24773,88;27003,71
94,5;0,3148515;-0,009429506;27,15348;0,02715348;0;0;0;0,0349835;0,03497738;24919,96;27162,97
95;0,3166451;-0,009295034;27,34225;0,02734224;0;0;0;0,03518279;0,0351766;25093,2;27351,87
95,5;0,3184388;-0,009355684;27,75062;0,02775062;0;0;0;0,03538209;0,03537583;25467,99;27760,44
96;0,3199934;-0,009401961;28,09851;0,02809851;0;0;0;0,03555482;0,0355485;25787,25;28108,5
96,5;0,3216675;-0,009271533;26,78146;0,02678146;0;0;0;0,03574083;0,03573444;24578,54;26791,03
97;0,323222;-0,009352666;26,98315;0,02698315;0;0;0;0,03591355;0,0359071;24763,64;26992,84
97,5;0,3248961;-0,009304631;26,55305;0,02655305;0;0;0;0,03609956;0,03609305;24368,91;26562,63
98;0,3266898;-0,00943272;27,66674;0,02766674;0;0;0;0,03629886;0,03629227;25391;27676,78
98,5;0,3283639;-0,009235509;27,73291;0,02773291;0;0;0;0,03648487;0,03647822;25451,73;27743,03
99;0,330038;-0,009357308;28,00787;0,02800787;0;0;0;0,03667089;0,03666417;25704,07;28018,14
99,5;0,3317121;-0,00920032;27,9023;0,0279023;0;0;0;0,0368569;0,03685011;25607,18;27912,58
100;0,3332068;-0,009532102;26,49505;0,02649505;0;0;0;0,03702298;0,03701613;24315,69;26504,86
100,5;0,3348809;-0,009370766;26,94253;0,02694253;0;0;0;0,03720899;0,03720207;24726,36;26952,56
101;0,3366148;-0,009317785;26,79027;0,02679027;0;0;0;0,03740165;0,03739466;24586,63;26800,29
101,5;0,3383487;-0,009256386;27,9901;0,0279901;0;0;0;0,0375943;0,03758724;25687,77;28000,63
102;0,3400228;-0,009294606;28,31826;0,02831826;0;0;0;0,03778031;0,03777318;25988,93;28328,96
102,5;0,4530848;-0,009243736;29,01976;0,02901976;0;0;0;0,05034275;0,05033009;26632,73;29034,37
103;0,6226477;-0,00935305;29,76941;0,02976942;0;0;0;0,06918308;0,06915916;27320,72;29790,01
103,5;0,7891615;-0,009191604;29,13815;0,02913815;0;0;0;0,08768461;0,08764619;26741,38;29163,7
104;0,9557948;-0,009322618;27,80529;0,02780529;0;0;0;0,1061994;0,1061431;25518,16;27834,82
104,5;1,122548;-0,009247428;26,88204;0,02688204;0;0;0;0,1247275;0,1246498;24670,85;26915,57
105;1,289061;-0,009373827;26,83779;0,02683779;0;0;0;0,143229;0,1431266;24630,24;26876,23
105,5;1,455755;-0,009944977;24,76747;0,02476747;0;0;0;0,1617505;0,1616198;22730,21;24807,53
106;1,622507;-0,009247924;21,10303;0,02110303;0;0;0;0,1802786;0,1801163;19367,19;21141,07
106,5;1,789201;-0,009186826;19,65638;0,01965638;0;0;0;0,1988001;0,1986027;18039,54;19695,46
107;1,955774;-0,009360797;18,11904;0,01811904;0;0;0;0,2173082;0,2170724;16628,65;18158,41
107,5;2,122407;-0,009177126;18,51249;0,01851249;0;0;0;0,235823;0,2355454;16989,74;18556,15
108;2,2891;-0,009171584;18,24536;0,01824536;0;0;0;0,2543445;0,2540216;16744,58;18291,77
108,5;2,455853;-0,009177243;17,02801;0,01702801;0;0;0;0,2728726;0,272501;15627,36;17074,47
109;2,622427;-0,009181245;16,4126;0,0164126;0;0;0;0,2913808;0,2909571;15062,58;16460,43
109,5;2,78906;-0,009188072;17,33478;0,01733478;0;0;0;0,3098955;0,3094164;15908,9;17388,5
110;2,955873;-0,00927223;16,4406;0,0164406;0;0;0;0,3284303;0,3278922;15088,27;16494,59
110,5;3,122566;-0,009269195;17,04127;0,01704127;0;0;0;0,3469518;0,3463513;15639,54;17100,4
111;3,28908;-0,009255643;16,11117;0,01611117;0;0;0;0,3654533;0,3647871;14785,94;16170,04
111,5;3,455773;-0,009191194;16,01157;0,01601157;0;0;0;0,3839748;0,3832395;14694,53;16073,05
112;3,622406;-0,009313695;15,19417;0,01519417;0;0;0;0,4024896;0,4016817;13944,37;15255,33
112,5;3,789219;-0,009187912;14,39098;0,01439098;0;0;0;0,4210243;0,4201405;13207,24;14451,56
113;3,955733;-0,009301424;13,01578;0,01301578;0;0;0;0,4395258;0,4385627;11945,16;13072,99
113,5;4,122366;-0,00916726;12,81213;0,01281213;0;0;0;0,4580407;0,4569948;11758,26;12870,82
114;4,289179;-0,009258866;13,20113;0,01320113;0;0;0;0,4765754;0,4754434;12115,26;13264,04
114,5;4,455812;-0,009080933;13,03296;0,01303296;0;0;0;0,4950902;0,4938687;11960,93;13097,49
115;4,622445;-0,009199038;12,56903;0,01256903;0;0;0;0,513605;0,5122906;11535,16;12633,59
115,5;4,789078;-0,009234279;13,119;0,013119;0;0;0;0,5321198;0,5307091;12039,89;13188,81
116;4,955831;-0,009318784;13,08827;0,01308827;0;0;0;0,5506479;0,5491374;12011,69;13160,34
116,5;5,122525;-0,009076688;11,65591;0,01165591;0;0;0;0,5691694;0,5675558;10697,15;11722,25
117;5,289277;-0,009303081;13,01069;0,01301069;0;0;0;0,5876975;0,5859773;11940,49;13087,16
117,5;5,455791;-0,009169318;12,91501;0,01291501;0;0;0;0,606199;0,604369;11852,68;12993,3
118;5,622484;-0,009255463;12,09923;0,01209923;0;0;0;0,6247205;0,6227772;11104,01;12174,82
118,5;5,789118;-0,009205084;12,06576;0,01206576;0;0;0;0,6432353;0,6411754;11073,28;12143,37
119;5,955811;-0,00908376;11,82525;0,01182525;0;0;0;0,6617568;0,6595767;10852,56;11903,51
119,5;6,122444;-0,009138151;12,17333;0,01217333;0;0;0;0,6802716;0,6779682;11172,01;12256,14
120;6,289017;-0,009384437;11,7143;0,0117143;0;0;0;0,6987797;0,6963496;10750,73;11796,16
120,5;6,45571;-0,009132133;11,81003;0,01181003;0;0;0;0,7173011;0,7147408;10838,59;11894,74
121;6,622523;-0,009332794;11,33426;0,01133426;0;0;0;0,7358359;0,7331419;10401,95;11417,66
121,5;6,789216;-0,009170901;12,17695;0,01217695;0;0;0;0,7543574;0,7515263;11175,33;12268,81
122;6,95573;-0,009083232;11,19825;0,01119825;0;0;0;0,7728589;0,7698877;10277,13;11284,79
122,5;7,122543;-0,009241827;10,92333;0,01092333;0;0;0;0,7913937;0,7882786;10024,83;11009,78
123;7,289176;-0,009404444;10,98848;0,01098848;0;0;0;0,8099084;0,8066463;10084,62;11077,47
123,5;7,455809;-0,009221243;10,03175;0,01003175;0;0;0;0,8284233;0,8250107;9206,58;10114,85
124;7,622323;-0,009277873;8,879487;0,008879487;0;0;0;0,8469248;0,8433585;8149,101;8954,69
124,5;7,789136;-0,009232404;9,928819;0,009928819;0;0;0;0,8654596;0,8617359;9112,12;10014,75
125;7,955829;-0,008836065;9,972916;0,009972917;0;0;0;0,883981;0,8800968;9152,59;10061,08
125,5;8,122462;-0,009279723;9,484321;0,009484321;0;0;0;0,9024957;0,8984476;8704,185;9569,917
126;8,289095;-0,00941748;9,229574;0,009229574;0;0;0;0,9210106;0,9167951;8470,392;9314,579
126,5;8,455789;-0,009174229;8,897645;0,008897644;0;0;0;0,9395321;0,935146;8165,766;8981,241
127;8,622482;-0,009402366;9,314979;0,009314979;0;0;0;0,9580535;0,9534933;8548,771;9404,222
127,5;8,789115;-0,009245948;9,730797;0,009730796;0;0;0;0,9765683;0,9718307;8930,386;9825,824
128;8,955748;-0,008727145;9,493131;0,009493131;0;0;0;0,9950832;0,9901648;8712,27;9587,596
128,5;9,122561;-0,009270018;9,265303;0,009265303;0;0;0;1,013618;1,008515;8503,182;9359,217
129;9,289134;-0,009357687;9,69595;0,00969595;0;0;0;1,032126;1,026836;8898,405;9796,024
129,5;9,455828;-0,009214226;10,02093;0,01002093;0;0;0;1,050648;1,045167;9196,653;10126,21
130;9,62252;-0,009263512;10,79868;0,01079868;0;0;0;1,069169;1,063494;9910,429;10914,13
130,5;9,789094;-0,009229706;9,905032;0,009905033;0;0;0;1,087677;1,081804;9090,29;10012,77
131;9,955846;-0,00849383;10,52166;0,01052166;0;0;0;1,106205;1,100131;9656,198;10638,05
131,5;10,12248;-0,009162396;9,422115;0,009422115;0;0;0;1,12472;1,118442;8647,095;9528,087
132;10,28911;-0,009298175;10,4227;0,0104227;0;0;0;1,143235;1,136749;9565,377;10541,86
132,5;10,45569;-0,009170189;9,259968;0,009259968;0;0;0;1,161743;1,155047;8498,285;9367,545
133;10,62244;-0,009461457;9,633058;0,009633058;0;0;0;1,180271;1,17336;8840,687;9746,754
133,5;10,78919;-0,009166049;10,03424;0,01003424;0;0;0;1,198799;1,191671;9208,871;10154,53
134;10,95577;-0,008609461;9,592093;0,009592093;0;0;0;1,217307;1,209958;8803,092;9708,858
134,5;11,12228;-0,00939454;9,566643;0,009566643;0;0;0;1,235809;1,228235;8779,734;9684,868
135;11,28909;-0,009173432;10,24567;0,01024567;0;0;0;1,254344;1,246542;9402,912;10374,19
135,5;11,45591;-0,00918832;11,14495;0,01114495;0;0;0;1,272878;1,264845;10228,22;11286,81
136;11,62242;-0,009490519;10,27993;0,01027993;0;0;0;1,29138;1,283113;9434,354;10412,69
136,5;11,78899;-0,00913302;8,782581;0,00878258;0;0;0;1,309888;1,301383;8060,166;8897,623
137;11,95586;-0,008527017;9,109273;0,009109274;0;0;0;1,328429;1,319683;8359,986;9230,284
137,5;12,12256;-0,009274447;9,710681;0,009710682;0;0;0;1,346951;1,33796;8911,926;9841,48
138;12,28907;-0,009115179;8,78537;0,008785371;0;0;0;1,365452;1,356214;8062,726;8905,33
138,5;12,45577;-0,009447216;8,385263;0,008385263;0;0;0;1,383974;1,374485;7695,53;8501,313
139;12,62252;-0,009330095;8,787181;0,008787181;0;0;0;1,402502;1,392758;8064,388;8910,422
139,5;12,78921;-0,009213123;8,676424;0,008676424;0;0;0;1,421023;1,411022;7962,741;8799,718
140;12,95584;-0,008670802;8,03826;0,00803826;0;0;0;1,439538;1,429275;7377,069;8153,974
140,5;13,12242;-0,009259505;7,199137;0,007199137;0;0;0;1,458046;1,447519;6606,969;7304,103
141;13,28917;-0,009187808;8,145297;0,008145297;0;0;0;1,476575;1,465779;7475,302;8265,568
141,5;13,4558;-0,009533677;7,807837;0,007807837;0;0;0;1,495089;1,484023;7165,601;7924,572
142;13,6225;-0,00922301;8,531896;0,008531895;0;0;0;1,513611;1,50227;7830,101;8661,035
142,5;13,78919;-0,00911945;7,472384;0,007472384;0;0;0;1,532132;1,520514;6857,74;7586,871
143;13,95576;-0,009681805;7,629098;0,007629098;0;0;0;1,55064;1,538741;7001,564;7747,398
143,5;14,1224;-0,009266536;7,787183;0,007787183;0;0;0;1,569155;1,556971;7146,645;7909,376
144;14,28927;-0,00916274;7,885607;0,007885607;0;0;0;1,587697;1,575225;7236,973;8010,807
144,5;14,45584;-0,009261182;8,0225;0,0080225;0;0;0;1,606205;1,593442;7362,606;8151,358
145;14,6223;-0,009283212;6,860942;0,006860942;0;0;0;1,6247;1,611643;6296,592;6972,412
145,5;14,78905;-0,009060279;8,611526;0,008611525;0;0;0;1,643228;1,629873;7903,181;8753,033
146;14,95586;-0,009304856;8,246902;0,008246902;0;0;0;1,661763;1,648106;7568,55;8383,946
146,5;15,1225;-0,009194002;7,896325;0,007896326;0;0;0;1,680277;1,666317;7246,81;8029,006
147;15,28901;-0,009113865;7,480998;0,007480998;0;0;0;1,698779;1,684511;6865,645;7608,083
147,5;15,45582;-0,009358484;7,814298;0,007814297;0;0;0;1,717314;1,702735;7171,529;7948,494
148;15,62252;-0,009305744;7,99984;0,007999839;0;0;0;1,735835;1,720942;7341,81;8138,704
148,5;15,78909;-0,009112604;7,949037;0,007949037;0;0;0;1,754343;1,739132;7295,186;8088,49
149;15,95572;-0,009275942;7,077367;0,007077367;0;0;0;1,772858;1,757326;6495,215;7202,839
149,5;16,12242;-0,009293529;7,752336;0,007752337;0;0;0;1,79138;1,775523;7114,665;7891,21
150;16,28923;-0,009102536;8,534882;0,008534881;0;0;0;1,809914;1,79373;7832,841;8689,356
150,5;16,45574;-0,009255592;6,821103;0,006821103;0;0;0;1,828416;1,811901;6260,031;6945,821
151;16,62244;-0,009254951;7,668253;0,007668253;0;0;0;1,846937;1,830089;7037,497;7809,88
151,5;16,78913;-0,009127417;8,453539;0,008453539;0;0;0;1,865459;1,848272;7758,189;8611,236
152;16,95588;-0,009187459;8,3188;0,0083188;0;0;0;1,883987;1,86646;7634,533;8475,525
152,5;17,12252;-0,009301218;7,647256;0,007647256;0;0;0;1,902502;1,88463;7018,228;7792,745
153;17,28909;-0,009172172;7,443214;0,007443214;0;0;0;1,92101;1,902791;6830,969;7586,199
153,5;17,45584;-0,0092603;8,0688;0,0080688;0;0;0;1,939538;1,920969;7405,097;8225,297
154;17,62241;-0,009309852;6,749304;0,006749304;0;0;0;1,958046;1,939123;6194,137;6881,459
154,5;17,78917;-0,009161503;8,317723;0,008317723;0;0;0;1,976574;1,957293;7633,545;8482,129
155;17,9558;-0,009276627;7,839112;0,007839112;0;0;0;1,995089;1,975448;7194,302;7995,509
155,5;18,12255;-0,009376941;8,76643;0,008766429;0;0;0;2,013617;1,993612;8045,343;8942,952
156;18,28913;-0,009108034;7,787036;0,007787036;0;0;0;2,032125;2,011753;7146,51;7945,278
156,5;18,45582;-0,009266615;7,927404;0,007927404;0;0;0;2,050647;2,029904;7275,332;8089,967
157;18,62251;-0,009416655;7,968419;0,007968418;0;0;0;2,069168;2,048052;7312,973;8133,298
157,5;18,78909;-0,009179173;7,925789;0,00792579;0;0;0;2,087676;2,066183;7273,851;8091,254
158;18,95572;-0,009154245;7,828834;0,007828834;0;0;0;2,106191;2,084318;7184,87;7993,724
158,5;19,12253;-0,009166508;7,821198;0,007821199;0;0;0;2,124726;2,102468;7177,862;7987,377
159;19,28911;-0,009067876;7,980262;0,007980262;0;0;0;2,143234;2,12059;7323,843;8151,298
159,5;19,45568;-0,009296357;8,157386;0,008157386;0;0;0;2,161742;2,138708;7486,397;8333,728
160;19,62243;-0,009227649;7,275879;0,007275879;0;0;0;2,18027;2,156842;6677,398;7434,513
160,5;19,78912;-0,009091624;7,646032;0,007646033;0;0;0;2,198792;2,174967;7017,105;7814,153
161;19,95576;-0,009384753;8,319974;0,008319974;0;0;0;2,217307;2,193082;7635,611;8504,453
161,5;20,12233;-0,009286868;7,31239;0,00731239;0;0;0;2,235815;2,211187;6710,906;7475,881
162;20,28921;-0,009175809;7,231586;0,007231586;0;0;0;2,254356;2,229321;6636,749;7394,612
162,5;20,45584;-0,009377748;8,402736;0,008402736;0;0;0;2,272871;2,247426;7711,565;8593,719
163;20,62247;-0,009247293;7,67946;0,007679461;0;0;0;2,291386;2,265528;7047,783;7855,426
163,5;20,78905;-0,009221853;7,784687;0,007784687;0;0;0;2,309894;2,28362;7144,355;7964,506
164;20,95586;-0,009327852;8,247735;0,008247735;0;0;0;2,328429;2,301734;7569,314;8439,777
164,5;21,12261;-0,009150782;7,685627;0,007685627;0;0;0;2,346957;2,319839;7053,443;7866,006
165;21,28918;-0,009504717;7,607955;0,007607955;0;0;0;2,365465;2,337921;6982,16;7787,919
165,5;21,45582;-0,009196268;7,846746;0,007846747;0;0;0;2,38398;2,356007;7201,309;8033,811
166;21,62245;-0,009210876;7,758111;0,007758111;0;0;0;2,402494;2,374089;7119,965;7944,5
166,5;21,78914;-0,009189757;7,591167;0,007591167;0;0;0;2,421016;2,392174;6966,753;7774,951
167;21,9559;-0,009376978;7,285423;0,007285423;0;0;0;2,439544;2,410262;6686,158;7463,154
167,5;22,12241;-0,009158154;7,822912;0,007822912;0;0;0;2,458046;2,428322;7179,435;8015,202
168;22,28916;-0,009304955;7,253659;0,007253659;0;0;0;2,476574;2,446404;6657,006;7433,301
168,5;22,4558;-0,009289866;7,71279;0,00771279;0;0;0;2,495088;2,464469;7078,372;7905,231
169;22,62249;-0,009177214;8,029352;0,008029352;0;0;0;2,51361;2,482538;7368,894;8231,178
169,5;22,78912;-0,009173501;8,297167;0,008297167;0;0;0;2,532125;2,500598;7614,68;8507,261
170;22,9557;-0,009334698;8,301278;0,008301278;0;0;0;2,550633;2,518647;7618,453;8513,013
170,5;23,12239;-0,009224016;7,417519;0,007417519;0;0;0;2,569154;2,536706;6807,388;7608,086
171;23,28914;-0,009346905;7,757671;0,007757671;0;0;0;2,587682;2,554769;7119,561;7958,415
171,5;23,45578;-0,009294751;8,871656;0,008871656;0;0;0;2,606197;2,572815;8141,914;9102,869
172;23,62235;-0,009347817;7,214015;0,007214015;0;0;0;2,624706;2,590851;6620,624;7403,362
172,5;23,78916;-0,009464157;7,323402;0,007323402;0;0;0;2,64324;2,60891;6721,013;7516,977
172,724;23,86372;-0,008664704;7,667665;0,007667665;0;0;0;2,651524;2,616981;7036,958;7870,975