File: scratch/KRAMS/src/apps/scratch/axel/tensile_tests/pullout155.raw
"Prüfungstyp";"Manuell"
"Methodenname:";"C:\INSTRON\USER\TEMPLATE\Zugversuch Textilbeton.mtM"
"Name:";"Zugversuche Carbon"
"Prüfer";""
"Firma:";""
"Abteilung:";""
"Prüfdatum:";"01.01.97"
"Temperatur:";""
"Feuchtigkeit:";""
"Anmerkung 1:";""
"Anmerkung 2:";""
"Anmerkung 3:";""
"Geometrie:";"Rectangular"
"Probe";1
"Probenname:";"V19-Z-3-1"
"Breite:";100;"mm"
"Dicke:";10;"mm"
"Länge:";900;"mm"
"Durchmesser:";1.000000;"mm"
"Innendurchmesser:";0.500000;"mm"
"Außendurchm.:";1.000000;"mm"
"Wandstärke:";0.500000;"mm"
"Querschnitt:";1000;"mm*mm"
"Lineare Dichte:";1.000000;"den"
"Schlittengewicht:";9.806650;"N"
"Lade-Spannweite:";0.000000;"mm"
"Unterstütz.-Spannweite:";1.000000;"mm"
"Spannweitenverhältnis:";"2"
"Vorrichtungstyp:";"3-point"
"Kommentar:";""
"Eingefügt"
"Endbreite:";100;"mm"
"Enddicke:";10;"mm"
"Endlänge:";900;"mm"
"Enddurchmesser:";1.000000;"mm"
"Endinnendurchmesser:";0.500000;"mm"
"Endaußendurchmesser:";1.000000;"mm"
"Endwandstärke:";0.500000;"mm"
"Endquerschnitt:";1000;"mm*mm"
"Lineare Enddichte:";1.000000;"den"
"Zeit sec";"Verformung mm";"Dehnung 1 %";"Kraft N";"Spannung MPa";"Anz. der Zykl. ";"Zyklenzahl gesamt ";"Wiederholungswert ";"Dehnung [Trav.] %";"Tatsächliche dehnung %";"Zähigkeit gf/tex";"Tatsächliche spannung Pa"
0;5,978949e-005;-0,008219611;-128,7327;-0,1287327;0;0;0;6,643277e-006;6,643277e-006;-118143,7;-128732,7
1;0,003467791;-0,008418626;-120,7432;-0,1207432;0;0;0;0,0003853101;0,0003853093;-110811,4;-120743,7
2;0,006576844;-0,008402607;-115,3296;-0,1153296;0;0;0;0,0007307605;0,0007307578;-105843,1;-115330,5
3;0,01004463;-0,008586119;-108,7863;-0,1087863;0;0;0;0,001116071;0,001116064;-99838,03;-108787,5
4;0,01339285;-0,008374939;-104,5802;-0,1045802;0;0;0;0,001488094;0,001488083;-95977,96;-104581,8
5;0,01656169;-0,008352207;-101,7262;-0,1017262;0;0;0;0,001840188;0,001840171;-93358,63;-101728
6;0,02002948;-0,008622805;-98,28308;-0,09828307;0;0;0;0,002225498;0,002225473;-90198,77;-98285,26
7;0,02343748;-0,008423994;-95,04282;-0,09504282;0;0;0;0,002604165;0,002604131;-87225,04;-95045,3
8;0,02660632;-0,008274474;-93,91161;-0,09391161;0;0;0;0,002956258;0,002956214;-86186,88;-93914,39
9;0,03001432;-0,008515971;-92,03906;-0,09203906;0;0;0;0,003334925;0,003334869;-84468,35;-92042,13
10;0,03348212;-0,008560742;-89,45288;-0,08945288;0;0;0;0,003720235;0,003720166;-82094,89;-89456,2
11;0,03659117;-0,00832018;-88,94451;-0,08894451;0;0;0;0,004065685;0,004065603;-81628,34;-88948,13
12;0,03999917;-0,008424637;-86,81354;-0,08681354;0;0;0;0,004444352;0,004444254;-79672,66;-86817,4
13;0,04340717;-0,008618357;-84,14895;-0,08414895;0;0;0;0,004823019;0,004822902;-77227,25;-84153,01
14;0,04669559;-0,00839186;-82,77704;-0,08277705;0;0;0;0,005188399;0,005188264;-75968,19;-82781,34
15;0,04998401;-0,008286303;-81,66795;-0,08166795;0;0;0;0,005553779;0,005553625;-74950,32;-81672,49
16;0,05333222;-0,008569277;-80,4693;-0,0804693;0;0;0;0,005925803;0,005925627;-73850,27;-80474,07
17;0,05674023;-0,008538601;-79,46279;-0,07946279;0;0;0;0,00630447;0,006304271;-72926,55;-79467,8
18;0,05996886;-0,008337673;-78,5966;-0,0785966;0;0;0;0,006663206;0,006662984;-72131,6;-78601,84
19;0,06331707;-0,008476903;-76,97503;-0,07697503;0;0;0;0,00703523;0,007034983;-70643,41;-76980,44
20;0,06672507;-0,00868293;-76,46515;-0,07646514;0;0;0;0,007413897;0,007413622;-70175,48;-76470,81
21;0,0699537;-0,008477168;-76,65729;-0,0766573;0;0;0;0,007772634;0,007772332;-70351,82;-76663,25
22;0,07336171;-0,008383092;-76,12871;-0,07612871;0;0;0;0,008151301;0,008150969;-69866,71;-76134,92
23;0,07670992;-0,008611361;-74,2014;-0,0742014;0;0;0;0,008523325;0,008522961;-68097,93;-74207,72
24;0,07993855;-0,008628136;-74,1686;-0,0741686;0;0;0;0,008882062;0,008881667;-68067,84;-74175,19
25;0,08334655;-0,00833666;-73,20482;-0,07320482;0;0;0;0,009260728;0,009260299;-67183,33;-73211,6
26;0,08669476;-0,008514368;-72,1458;-0,0721458;0;0;0;0,009632751;0,009632287;-66211,41;-72152,75
27;0,0899234;-0,008619085;-71,77051;-0,07177051;0;0;0;0,009991488;0,00999099;-65867;-71777,68
28;0,09333139;-0,008437822;-71,61844;-0,07161845;0;0;0;0,01037015;0,01036962;-65727,44;-71625,87
29;0,0967394;-0,00842159;-69,97377;-0,06997377;0;0;0;0,01074882;0,01074824;-64218,05;-69981,3
30;0,09990823;-0,008601612;-69,36316;-0,06936316;0;0;0;0,01110092;0,0111003;-63657,67;-69370,86
31;0,1033162;-0,008566513;-68,90041;-0,06890041;0;0;0;0,01147958;0,01147892;-63232,98;-68908,32
32;0,106784;-0,008428515;-67,2599;-0,0672599;0;0;0;0,01186489;0,01186419;-61727,41;-67267,88
33;0,1099529;-0,008550228;-67,05038;-0,06705038;0;0;0;0,01221699;0,01221624;-61535,12;-67058,57
34;0,1133011;-0,008629062;-66,11459;-0,06611459;0;0;0;0,01258901;0,01258822;-60676,31;-66122,91
35;0,1167689;-0,008500126;-65,25692;-0,06525692;0;0;0;0,01297432;0,01297348;-59889,18;-65265,38
36;0,1200573;-0,008499313;-63,70739;-0,0637074;0;0;0;0,0133397;0,01333881;-58467,12;-63715,89
37;0,1232859;-0,008659741;-64,00031;-0,06400032;0;0;0;0,01369844;0,0136975;-58735,94;-64009,08
38;0,1267537;-0,008610208;-62,09243;-0,06209243;0;0;0;0,01408375;0,01408275;-56984,99;-62101,17
39;0,1300421;-0,008599277;-61,397;-0,061397;0;0;0;0,01444913;0,01444808;-56346,77;-61405,88
40;0,1332708;-0,008681313;-60,64264;-0,06064264;0;0;0;0,01480786;0,01480677;-55654,46;-60651,62
41;0,1366788;-0,008697717;-59,26467;-0,05926467;0;0;0;0,01518653;0,01518538;-54389,83;-59273,67
42;0,1400868;-0,008689825;-57,99122;-0,05799122;0;0;0;0,0155652;0,01556399;-53221,13;-58000,25
43;0,1432556;-0,008707424;-57,98638;-0,05798638;0;0;0;0,01591729;0,01591602;-53216,68;-57995,61
44;0,1466636;-0,008758244;-56,61505;-0,05661505;0;0;0;0,01629596;0,01629463;-51958,16;-56624,28
45;0,1500716;-0,008760655;-55,60047;-0,05560047;0;0;0;0,01667462;0,01667323;-51027,03;-55609,74
46;0,1532405;-0,008840465;-55,9948;-0,0559948;0;0;0;0,01702672;0,01702527;-51388,93;-56004,34
47;0,1566485;-0,008849135;-54,04086;-0,05404086;0;0;0;0,01740539;0,01740387;-49595,71;-54050,27
48;0,1600565;-0,008865676;-52,78279;-0,05278279;0;0;0;0,01778405;0,01778247;-48441,12;-52792,18
49;0,1632253;-0,008923531;-53,24001;-0,05324001;0;0;0;0,01813615;0,0181345;-48860,73;-53249,67
50;0,1666333;-0,008929955;-51,86374;-0,05186374;0;0;0;0,01851481;0,0185131;-47597,67;-51873,34
51;0,1701011;-0,008887819;-50,47269;-0,05047269;0;0;0;0,01890012;0,01889834;-46321,04;-50482,23
52;0,1732699;-0,008943424;-51,01375;-0,05101375;0;0;0;0,01925222;0,01925036;-46817,6;-51023,57
53;0,1766779;-0,008989801;-49,33179;-0,04933179;0;0;0;0,01963088;0,01962896;-45273,98;-49341,47
54;0,1800859;-0,008998603;-47,60019;-0,04760019;0;0;0;0,02000955;0,02000755;-43684,82;-47609,72
55;0,1833146;-0,008988031;-47,91768;-0,04791768;0;0;0;0,02036829;0,02036621;-43976,2;-47927,44
56;0,1866628;-0,009045997;-46,09902;-0,04609902;0;0;0;0,02074031;0,02073816;-42307,13;-46108,58
57;0,1901306;-0,009056123;-44,91167;-0,04491167;0;0;0;0,02112562;0,02112339;-41217,45;-44921,16
58;0,1933592;-0,009083798;-44,14161;-0,04414161;0;0;0;0,02148436;0,02148205;-40510,72;-44151,09
59;0,1965878;-0,009181063;-42,96923;-0,04296923;0;0;0;0,02184309;0,02184071;-39434,78;-42978,62
60;0,2001154;-0,0091513;-41,48568;-0,04148568;0;0;0;0,02223505;0,02223258;-38073,26;-41494,91
61;0,2034039;-0,009165243;-40,17333;-0,04017333;0;0;0;0,02260043;0,02259788;-36868,86;-40182,41
62;0,2065727;-0,009257263;-39,19472;-0,03919472;0;0;0;0,02295252;0,02294989;-35970,75;-39203,72
63;0,2100405;-0,009276087;-37,92921;-0,03792921;0;0;0;0,02333783;0,02333511;-34809,33;-37938,06
64;0,2133887;-0,009271954;-36,67877;-0,03667877;0;0;0;0,02370986;0,02370705;-33661,75;-36687,47
65;0,2165575;-0,009309617;-36,53792;-0,03653792;0;0;0;0,02406195;0,02405905;-33532,47;-36546,71
66;0,2200253;-0,009263887;-34,69718;-0,03469718;0;0;0;0,02444726;0,02444427;-31843,15;-34705,66
67;0,2233735;-0,009249279;-33,27157;-0,03327157;0;0;0;0,02481928;0,0248162;-30534,81;-33279,83
68;0,2265424;-0,009279295;-32,55031;-0,03255031;0;0;0;0,02517138;0,02516821;-29872,87;-32558,5
69;0,2300102;-0,00921718;-30,94175;-0,03094175;0;0;0;0,02555669;0,02555342;-28396,63;-30949,66
70;0,2334182;-0,009110602;-29,22196;-0,02922196;0;0;0;0,02593536;0,02593199;-26818,29;-29229,54
71;0,236587;-0,009120135;-28,54503;-0,02854503;0;0;0;0,02628745;0,02628399;-26197,05;-28552,53
72;0,239995;-0,009071811;-27,52692;-0,02752692;0;0;0;0,02666611;0,02666256;-25262,69;-27534,26
73;0,243403;-0,009041562;-26,25211;-0,02625211;0;0;0;0,02704478;0,02704112;-24092,73;-26259,21
74;0,2465719;-0,008966007;-25,13446;-0,02513446;0;0;0;0,02739687;0,02739312;-23067,01;-25141,34
75;0,2499799;-0,008853254;-23,70508;-0,02370508;0;0;0;0,02777554;0,02777168;-21755,21;-23711,67
76;0,2533878;-0,008829823;-21,83283;-0,02183283;0;0;0;0,02815421;0,02815024;-20036,96;-21838,97
77;0,2565567;-0,008812235;-22,38001;-0,02238001;0;0;0;0,0285063;0,02850224;-20539,13;-22386,39
78;0,2599647;-0,008732482;-20,90155;-0,02090155;0;0;0;0,02888497;0,0288808;-19182,28;-20907,58
79;0,2634325;-0,008656001;-19,81115;-0,01981115;0;0;0;0,02927027;0,02926599;-18181,58;-19816,95
80;0,2666013;-0,008626236;-19,19491;-0,01919491;0;0;0;0,02962237;0,02961799;-17616,03;-19200,6
81;0,2699496;-0,008578625;-18,33176;-0,01833176;0;0;0;0,02999439;0,0299899;-16823,87;-18337,26
82;0,2734771;-0,008493808;-17,05264;-0,01705264;0;0;0;0,03038635;0,03038173;-15649,97;-17057,82
83;0,276646;-0,008553871;-16,43518;-0,01643518;0;0;0;0,03073844;0,03073372;-15083,3;-16440,23
84;0,2799344;-0,008572628;-15,89456;-0,01589456;0;0;0;0,03110382;0,03109899;-14587,15;-15899,5
85;0,2834022;-0,008475605;-14,34728;-0,01434728;0;0;0;0,03148913;0,03148418;-13167,14;-14351,8
86;0,2866906;-0,008348382;-14,3326;-0,0143326;0;0;0;0,03185451;0,03184944;-13153,67;-14337,17
87;0,2899192;-0,008556806;-14,7423;-0,0147423;0;0;0;0,03221325;0,03220806;-13529,67;-14747,05
88;0,293387;-0,008570927;-13,59102;-0,01359102;0;0;0;0,03259856;0,03259325;-12473,08;-13595,45
89;0,2967352;-0,008585484;-13,24216;-0,01324216;0;0;0;0,03297058;0,03296515;-12152,92;-13246,52
90;0,2999041;-0,008600013;-13,4346;-0,0134346;0;0;0;0,03332267;0,03331712;-12329,53;-13439,08
91;0,3033719;-0,008707818;-12,66444;-0,01266444;0;0;0;0,03370798;0,0337023;-11622,72;-12668,71
92;0,3067201;-0,008685809;-12,58182;-0,01258182;0;0;0;0,03408001;0,0340742;-11546,9;-12586,11
93;0,3098889;-0,00873158;-12,56313;-0,01256313;0;0;0;0,03443211;0,03442618;-11529,74;-12567,45
94;0,3133567;-0,008748443;-12,60497;-0,01260497;0;0;0;0,03481742;0,03481135;-11568,15;-12609,36
95;0,3167049;-0,008795378;-12,24006;-0,01224006;0;0;0;0,03518944;0,03518325;-11233,24;-12244,36
96;0,3198738;-0,008837201;-12,35439;-0,01235439;0;0;0;0,03554153;0,03553521;-11338,17;-12358,78
97;0,3233416;-0,008864129;-11,6248;-0,0116248;0;0;0;0,03592684;0,03592039;-10668,59;-11628,97
98;0,3266898;-0,008927892;-11,2173;-0,0112173;0;0;0;0,03629886;0,03629227;-10294,61;-11221,37
99;0,3299184;-0,009034264;-10,82253;-0,01082253;0;0;0;0,0366576;0,03665088;-9932,315;-10826,49
100;0,3333264;-0,009008299;-11,26903;-0,01126903;0;0;0;0,03703627;0,03702941;-10342,09;-11273,2
101;0,3367344;-0,009037933;-10,13978;-0,01013978;0;0;0;0,03741493;0,03740794;-9305,724;-10143,57
102;0,3399033;-0,009046171;-11,59078;-0,01159078;0;0;0;0,03776703;0,0377599;-10637,38;-11595,16
103;0,3433113;-0,009013581;-10,41601;-0,01041601;0;0;0;0,03814569;0,03813842;-9559,234;-10419,98
104;0,346779;-0,009133728;-10,18617;-0,01018617;0;0;0;0,03853101;0,03852358;-9348,306;-10190,1
105;0,3499479;-0,009146205;-11,16234;-0,01116234;0;0;0;0,0388831;0,03887554;-10244,17;-11166,68
106;0,3532961;-0,009138039;-10,37118;-0,01037118;0;0;0;0,03925512;0,03924742;-9518,091;-10375,25
107;0,3567639;-0,009167945;-8,912488;-0,008912488;0;0;0;0,03964043;0,03963258;-8179,388;-8916,021
108;0,3599925;-0,009144833;-9,215394;-0,009215394;0;0;0;0,03999917;0,03999117;-8457,378;-9219,08
109;0,3632809;-0,00915839;-10,19347;-0,01019347;0;0;0;0,04036455;0,04035641;-9354,998;-10197,58
110;0,3666889;-0,009205586;-9,433777;-0,009433777;0;0;0;0,04074322;0,04073492;-8657,798;-9437,62
111;0,3699774;-0,009213294;-9,134247;-0,009134247;0;0;0;0,0411086;0,04110015;-8382,906;-9138,002
112;0,3732658;-0,009228804;-8,933484;-0,008933484;0;0;0;0,04147398;0,04146538;-8198,656;-8937,189
113;0,3766738;-0,009180526;-8,588879;-0,008588878;0;0;0;0,04185264;0,04184389;-7882,397;-8592,473
114;0,380022;-0,009233209;-8,875487;-0,008875486;0;0;0;0,04222467;0,04221575;-8145,43;-8879,234
115;0,3832506;-0,009213798;-8,407692;-0,008407692;0;0;0;0,04258341;0,04257434;-7716,114;-8411,272
116;0,3866586;-0,009312473;-7,76478;-0,00776478;0;0;0;0,04296207;0,04295284;-7126,085;-7768,116
117;0,3900068;-0,009222219;-7,546594;-0,007546594;0;0;0;0,04333409;0,04332471;-6925,846;-7549,864
118;0,3932953;-0,009189819;-8,208985;-0,008208985;0;0;0;0,04369947;0,04368993;-7533,751;-8212,572
119;0,3966435;-0,009203617;-6,470882;-0,006470882;0;0;0;0,0440715;0,04406179;-5938,617;-6473,734
120;0,4000515;-0,009238012;-7,074199;-0,007074199;0;0;0;0,04445017;0,04444029;-6492,308;-7077,343
121;0,4032203;-0,009184133;-7,157499;-0,007157499;0;0;0;0,04480226;0,04479223;-6568,756;-7160,706
122;0,4067479;-0,009253804;-5,746921;-0,005746922;0;0;0;0,04519421;0,045184;-5274,206;-5749,519
123;0,4100364;-0,009252466;-6,134303;-0,006134303;0;0;0;0,0455596;0,04554922;-5629,724;-6137,098
124;0,413265;-0,009203299;-6,612033;-0,006612033;0;0;0;0,04591833;0,04590779;-6068,158;-6615,069
125;0,4167328;-0,00923945;-6,317643;-0,006317643;0;0;0;0,04630364;0,04629292;-5797,982;-6320,568
126;0,420081;-0,009177514;-5,223038;-0,005223038;0;0;0;0,04667566;0,04666477;-4793,415;-5225,476
127;0,4233096;-0,009139656;-5,811868;-0,005811868;0;0;0;0,0470344;0,04702334;-5333,811;-5814,602
128;0,4266578;-0,009234972;-5,401092;-0,005401092;0;0;0;0,04740642;0,04739519;-4956,823;-5403,652
129;0,4300658;-0,009138675;-5,293663;-0,005293663;0;0;0;0,04778509;0,04777367;-4858,23;-5296,192
130;0,4333542;-0,009153476;-4,923509;-0,004923509;0;0;0;0,04815047;0,04813888;-4518,523;-4925,88
131;0,4365829;-0,009217753;-4,094909;-0,004094908;0;0;0;0,04850921;0,04849745;-3758,08;-4096,895
132;0,4399909;-0,009161909;-4,486988;-0,004486988;0;0;0;0,04888787;0,04887593;-4117,909;-4489,182
133;0,4433989;-0,009159189;-4,244184;-0,004244184;0;0;0;0,04926654;0,04925441;-3895,077;-4246,275
134;0,4466275;-0,00917929;-4,467363;-0,004467363;0;0;0;0,04962528;0,04961297;-4099,898;-4469,58
135;0,4499757;-0,009125483;-3,588988;-0,003588988;0;0;0;0,0499973;0,0499848;-3293,774;-3590,782
136;0,4534435;-0,009147623;-2,64498;-0,00264498;0;0;0;0,05038261;0,05036992;-2427,416;-2646,313
137;0,4566123;-0,009013793;-3,679336;-0,003679336;0;0;0;0,0507347;0,05072184;-3376,69;-3681,202
138;0,4599606;-0,009118614;-2,451999;-0,002451999;0;0;0;0,05110673;0,05109368;-2250,309;-2453,252
139;0,4634284;-0,009089096;-1,25256;-0,00125256;0;0;0;0,05149204;0,05147879;-1149,53;-1253,205
140;0,4665972;-0,008961553;-2,86439;-0,00286439;0;0;0;0,05184413;0,0518307;-2628,779;-2865,875
141;0,4699454;-0,009109564;-1,987777;-0,001987777;0;0;0;0,05221616;0,05220253;-1824,272;-1988,815
142;0,4734132;-0,009045647;-1,08219;-0,00108219;0;0;0;0,05260147;0,05258764;-993,1743;-1082,76
143;0,476582;-0,00883594;-1,794356;-0,001794356;0;0;0;0,05295356;0,05293955;-1646,76;-1795,306
144;0,47999;-0,008998222;-0,8024825;-0,0008024825;0;0;0;0,05333223;0,05331801;-736,4739;-802,9104
145;0,4834578;-0,009044836;-0,09021915;-9,021915e-005;0;0;0;0,05371753;0,05370311;-82,79813;-90,26761
146;0,4865669;-0,008540286;-0,5330039;-0,0005330039;0;0;0;0,05406299;0,05404838;-489,1615;-533,2921
147;0,4899749;-0,00896867;-0,06936953;-6,936953e-005;0;0;0;0,05444165;0,05442684;-63,66351;-69,40729
148;0,4934426;-0,008925036;1,72536;0,00172536;0;0;0;0,05482696;0,05481194;1583,44;1726,306
149;0,4966115;-0,009043638;1,163791;0,001163791;0;0;0;0,05517906;0,05516384;1068,063;1164,433
150;0,4999597;-0,008918674;0,6171989;0,0006171989;0;0;0;0,05555108;0,05553565;566,431;617,5418
151;0,5034275;-0,00883613;2,508737;0,002508737;0;0;0;0,0559364;0,05592076;2302,38;2510,141
152;0,5066562;-0,008915966;1,985197;0,001985197;0;0;0;0,05629513;0,05627929;1821,904;1986,315
153;0,5098848;-0,008919173;2,631388;0,002631388;0;0;0;0,05665386;0,05663782;2414,942;2632,879
154;0,5134124;-0,008816135;2,999829;0,002999829;0;0;0;0,05704582;0,05702955;2753,076;3001,54
155;0,5167008;-0,008840042;3,567075;0,003567075;0;0;0;0,0574112;0,05739473;3273,663;3569,123
156;0,5199294;-0,008818895;3,111614;0,003111614;0;0;0;0,05776994;0,05775326;2855,667;3113,411
157;0,5233972;-0,008760864;4,233332;0,004233332;0;0;0;0,05815524;0,05813834;3885,117;4235,794
158;0,5267454;-0,008718058;3,626295;0,003626295;0;0;0;0,05852727;0,05851015;3328,013;3628,418
159;0,5299142;-0,008754254;3,306406;0,003306406;0;0;0;0,05887936;0,05886203;3034,436;3308,353
160;0,5333821;-0,008690885;4,572603;0,004572603;0;0;0;0,05926467;0,05924712;4196,481;4575,313
161;0,5367901;-0,008717482;5,982447;0,005982447;0;0;0;0,05964334;0,05962556;5490,358;5986,015
162;0,5398991;-0,00878167;4,407176;0,004407176;0;0;0;0,05998879;0,0599708;4044,662;4409,82
163;0,5433669;-0,008739936;5,357106;0,005357106;0;0;0;0,0603741;0,06035588;4916,455;5360,34
164;0,5467151;-0,008732405;5,025519;0,005025519;0;0;0;0,06074612;0,06072768;4612,143;5028,572
165;0,549884;-0,00879624;5,77307;0,00577307;0;0;0;0,06109822;0,06107956;5298,204;5776,597
166;0,5533517;-0,008741304;5,64484;0,00564484;0;0;0;0,06148352;0,06146463;5180,521;5648,311
167;0,5567597;-0,008777745;6,764552;0,006764552;0;0;0;0,06186219;0,06184307;6208,131;6768,736
168;0,5598688;-0,008848534;5,996249;0,005996249;0;0;0;0,06220765;0,06218831;5503,025;5999,979
169;0,5633964;-0,008807204;7,192164;0,007192164;0;0;0;0,0625996;0,06258001;6600,57;7196,666
170;0,5667446;-0,008859573;7,422292;0,007422293;0;0;0;0,06297162;0,0629518;6811,769;7426,966
171;0,5699134;-0,008891323;7,556591;0,007556591;0;0;0;0,06332371;0,06330367;6935,021;7561,376
172;0,5733812;-0,008800696;7,523262;0,007523261;0;0;0;0,06370902;0,06368873;6904,433;7528,055
173;0,5767294;-0,008958104;7,755348;0,007755348;0;0;0;0,06408104;0,06406052;7117,429;7760,318
174;0,5798982;-0,008873898;7,620119;0,007620119;0;0;0;0,06443314;0,06441239;6993,323;7625,029
175;0,5833063;-0,00882251;8,663578;0,008663578;0;0;0;0,06481181;0,06479081;7950,952;8669,193
176;0,5867741;-0,008915658;8,922436;0,008922436;0;0;0;0,06519712;0,06517588;8188,518;8928,253
177;0,5899429;-0,008898708;8,602498;0,008602498;0;0;0;0,06554921;0,06552774;7894,896;8608,137
178;0,5932911;-0,008970244;9,065594;0,009065594;0;0;0;0,06592124;0,06589952;8319,899;9071,57
179;0,5968187;-0,008871992;9,434474;0,009434475;0;0;0;0,06631318;0,06629121;8658,438;9440,731
180;0,6000474;-0,008817744;9,875253;0,009875253;0;0;0;0,06667193;0,06664971;9062,96;9881,837
181;0,603276;-0,008991091;8,758772;0,008758771;0;0;0;0,06703066;0,06700821;8038,315;8764,643
182;0,6066839;-0,008862629;10,34647;0,01034647;0;0;0;0,06740932;0,06738661;9495,42;10353,45
183;0,6100322;-0,008975582;10,63259;0,01063259;0;0;0;0,06778135;0,06775839;9758,004;10639,8
184;0,6132608;-0,009027479;10,12418;0,01012418;0;0;0;0,06814008;0,06811688;9291,407;10131,07
185;0,6167286;-0,008934308;11,59162;0,01159162;0;0;0;0,0685254;0,06850193;10638,15;11599,57
186;0,6200768;-0,00905526;11,54895;0,01154895;0;0;0;0,06889743;0,0688737;10598,98;11556,9
187;0,6232456;-0,009109653;11,59089;0,01159089;0;0;0;0,06924952;0,06922555;10637,48;11598,92
188;0,6267135;-0,009035445;12,46574;0,01246574;0;0;0;0,06963483;0,0696106;11440,37;12474,42
189;0,6300616;-0,009159915;12,69988;0,01269988;0;0;0;0,07000685;0,06998236;11655,25;12708,78
190;0,6332305;-0,009197038;12,52012;0,01252012;0;0;0;0,07035894;0,0703342;11490,27;12528,93
191;0,6367581;-0,009134253;13,81769;0,01381769;0;0;0;0,0707509;0,07072589;12681,11;13827,46
192;0,6400464;-0,009191651;13,94822;0,01394822;0;0;0;0,07111627;0,071091;12800,9;13958,14
193;0,6432751;-0,009234963;14,57855;0,01457855;0;0;0;0,07147501;0,07144948;13379,38;14588,97
194;0,6467429;-0,009272533;15,19772;0,01519773;0;0;0;0,07186033;0,07183452;13947,63;15208,65
195;0,6500911;-0,009246982;15,583;0,015583;0;0;0;0,07223234;0,07220627;14301,21;15594,26
196;0,65326;-0,00929038;15,35718;0,01535718;0;0;0;0,07258444;0,07255811;14093,97;15368,33
197;0,656668;-0,009337085;15,46187;0,01546187;0;0;0;0,0729631;0,0729365;14190,05;15473,15
198;0,660076;-0,009201109;16,81381;0,01681381;0;0;0;0,07334178;0,07331489;15430,79;16826,15
199;0,6633047;-0,009263969;16,45888;0,01645888;0;0;0;0,07370052;0,07367337;15105,05;16471,01
200;0,6666528;-0,009343665;16,32164;0,01632164;0;0;0;0,07407253;0,07404511;14979,1;16333,73
201;0,6701207;-0,009398368;18,12749;0,01812749;0;0;0;0,07445785;0,07443014;16636,4;18140,98
202;0,6733493;-0,009276205;18,07972;0,01807972;0;0;0;0,07481658;0,07478861;16592,56;18093,24
203;0,6766376;-0,009303623;18,08138;0,01808138;0;0;0;0,07518196;0,07515371;16594,09;18094,97
204;0,6800457;-0,009307559;18,79707;0,01879707;0;0;0;0,07556063;0,0755321;17250,91;18811,27
205;0,6833939;-0,00925337;19,27367;0,01927367;0;0;0;0,07593266;0,07590384;17688,31;19288,31
206;0,6866225;-0,009271391;19,26119;0,01926119;0;0;0;0,07629139;0,0762623;17676,86;19275,89
207;0,6899707;-0,009256986;19,86764;0,01986764;0;0;0;0,07666341;0,07663404;18233,42;19882,88
208;0,6933787;-0,00926248;19,96959;0,01996959;0;0;0;0,07704208;0,07701242;18326,98;19984,98
209;0,6966074;-0,009318266;20,34072;0,02034072;0;0;0;0,07740082;0,07737088;18667,59;20356,47
210;0,6999556;-0,009289205;20,23153;0,02023153;0;0;0;0,07777284;0,07774261;18567,38;20247,27
211;0,7033635;-0,009265834;20,64485;0,02064485;0;0;0;0,0781515;0,07812098;18946,7;20660,99
212;0,7065922;-0,00931508;19,70594;0,01970594;0;0;0;0,07851025;0,07847944;18085,02;19721,41
213;0,7100002;-0,00932892;20,8416;0,0208416;0;0;0;0,07888892;0,07885781;19127,27;20858,05
214;0,7134082;-0,009323964;20,46778;0,02046778;0;0;0;0,07926758;0,07923618;18784,19;20484
215;0,716577;-0,009343451;19,74352;0,01974352;0;0;0;0,07961967;0,07958799;18119,51;19759,24
216;0,7199851;-0,009327948;20,5155;0,0205155;0;0;0;0,07999834;0,07996636;18827,99;20531,91
217;0,723393;-0,009310055;20,51256;0,02051256;0;0;0;0,08037701;0,08034472;18825,29;20529,05
218;0,7265619;-0,009302268;20,45045;0,02045045;0;0;0;0,0807291;0,08069653;18768,29;20466,96
219;0,7299699;-0,009243835;20,14295;0,02014295;0;0;0;0,08110777;0,0810749;18486,08;20159,28
220;0,7333779;-0,009327625;20,99426;0,02099426;0;0;0;0,08148643;0,08145325;19267,37;21011,36
221;0,7366065;-0,009322218;19,68964;0,01968964;0;0;0;0,08184516;0,08181169;18070,06;19705,75
222;0,7399547;-0,009261089;20,48212;0,02048212;0;0;0;0,08221719;0,08218341;18797,35;20498,96
223;0,7434225;-0,009188713;20,65313;0,02065312;0;0;0;0,0826025;0,0825684;18954,29;20670,19
224;0,7466512;-0,009150985;19,65019;0,01965019;0;0;0;0,08296124;0,08292685;18033,86;19666,49
225;0,7499396;-0,009274223;19,02607;0,01902607;0;0;0;0,08332662;0,08329192;17461,08;19041,93
226;0,7534672;-0,009193526;20,16223;0,02016223;0;0;0;0,08371858;0,08368355;18503,78;20179,11
227;0,7566958;-0,009143354;19,13272;0,01913272;0;0;0;0,08407731;0,08404198;17558,95;19148,81
228;0,7599244;-0,00920535;18,14471;0,01814471;0;0;0;0,08443604;0,08440042;16652,21;18160,03
229;0,7633922;-0,009161151;18,98824;0,01898824;0;0;0;0,08482136;0,08478541;17426,36;19004,35
230;0,7667404;-0,009107373;19,00581;0,01900581;0;0;0;0,08519338;0,08515711;17442,48;19022
231;0,7699093;-0,009141749;17,95893;0,01795893;0;0;0;0,08554548;0,08550891;16481,71;17974,29
232;0,7733771;-0,009139955;18,94752;0,01894752;0;0;0;0,08593079;0,08589388;17388,98;18963,8
233;0,7767253;-0,009076942;18,96597;0,01896597;0;0;0;0,08630281;0,08626559;17405,92;18982,34
234;0,7798941;-0,009060351;18,26506;0,01826506;0;0;0;0,0866549;0,08661738;16762,66;18280,89
235;0,7833619;-0,009074938;18,32042;0,01832042;0;0;0;0,08704022;0,08700236;16813,46;18336,36
236;0,78677;-0,009060797;18,72473;0,01872473;0;0;0;0,08741888;0,0873807;17184,52;18741,1
237;0,7899388;-0,009054739;17,56636;0,01756636;0;0;0;0,08777098;0,08773248;16121,43;17581,77
238;0,7933467;-0,009024514;18,96715;0,01896715;0;0;0;0,08814964;0,08811081;17407;18983,87
239;0,7967548;-0,008982783;18,6682;0,0186682;0;0;0;0,08852831;0,08848914;17132,64;18684,73
240;0,7998638;-0,00903186;18,30378;0,01830378;0;0;0;0,08887376;0,08883429;16798,19;18320,04
241;0,8033316;-0,008960188;18,22375;0,01822376;0;0;0;0,08925907;0,08921926;16724,75;18240,02
242;0,8067994;-0,008950539;18,85521;0,01885521;0;0;0;0,08964437;0,08960422;17304,27;18872,12
243;0,8099085;-0,009013506;18,02069;0,01802069;0;0;0;0,08998983;0,08994936;16538,39;18036,91
244;0,8133165;-0,008962264;18,61677;0,01861677;0;0;0;0,0903685;0,09032769;17085,44;18633,59
245;0,8167842;-0,008899231;19,77529;0,01977529;0;0;0;0,09075381;0,09071265;18148,66;19793,24
246;0,8199531;-0,008927699;18,60076;0,01860076;0;0;0;0,09110589;0,09106442;17070,75;18617,71
247;0,8233013;-0,00892987;18,64359;0,01864359;0;0;0;0,09147792;0,09143611;17110,05;18660,64
248;0,8267691;-0,008857814;19,46019;0,01946019;0;0;0;0,09186323;0,09182106;17859,49;19478,07
249;0,8299977;-0,008846524;18,09552;0,01809552;0;0;0;0,09222197;0,09217947;16607,07;18112,21
250;0,8332263;-0,008859326;18,10732;0,01810732;0;0;0;0,09258071;0,09253787;16617,9;18124,08
251;0,8368137;-0,008855533;19,7773;0,0197773;0;0;0;0,0929793;0,0929361;18150,51;19795,68
252;0,8400423;-0,008770886;19,1453;0,0191453;0;0;0;0,09333804;0,0932945;17570,49;19163,17
253;0,8432112;-0,008788712;18,72649;0,01872649;0;0;0;0,09369013;0,09364627;17186,14;18744,04
254;0,8467388;-0,008778576;19,37415;0,01937415;0;0;0;0,09408209;0,09403786;17780,53;19392,38
255;0,8500272;-0,008708711;17,87837;0,01787837;0;0;0;0,09444746;0,09440289;16407,77;17895,25
256;0,8532558;-0,00871707;17,11559;0,01711559;0;0;0;0,0948062;0,09476129;15707,74;17131,82
257;0,8567236;-0,008743064;17,87186;0,01787186;0;0;0;0,09519152;0,09514624;16401,8;17888,87
258;0,8600718;-0,008642448;17,59876;0,01759876;0;0;0;0,09556353;0,0955179;16151,16;17615,58
259;0,8632407;-0,008641705;16,72337;0,01672337;0;0;0;0,09591563;0,09586966;15347,78;16739,41
260;0,8667085;-0,008621613;16,8933;0,0168933;0;0;0;0,09630094;0,0962546;15503,73;16909,56
261;0,8700567;-0,008609156;17,6918;0,0176918;0;0;0;0,09667297;0,09662627;16236,55;17708,9
262;0,8732256;-0,008600678;17,333;0,017333;0;0;0;0,09702506;0,09697802;15907,26;17349,81
263;0,8766933;-0,008573569;16,99671;0,01699671;0;0;0;0,09741037;0,09736295;15598,64;17013,27
264;0,8801013;-0,008649364;17,88204;0,01788204;0;0;0;0,09778903;0,09774126;16411,14;17899,52
265;1,092713;-0,008605524;18,44209;0,01844209;0;0;0;0,1214125;0,1213389;16925,13;18464,48
266;1,425979;-0,008495157;16,80055;0,01680055;0;0;0;0,1584422;0,1583168;15418,61;16827,17
267;1,759246;-0,008617829;14,05398;0,01405398;0;0;0;0,1954718;0,195281;12897,97;14081,45
268;2,092572;-0,008572433;14,66508;0,01466508;0;0;0;0,232508;0,2322382;13458,8;14699,18
269;2,425839;-0,00845682;14,29351;0,01429351;0;0;0;0,2695377;0,269175;13117,79;14332,03
270;2,759165;-0,00852647;16,31895;0,01631895;0;0;0;0,3065739;0,3061049;14976,63;16368,98
271;3,092611;-0,008636761;14,9027;0,0149027;0;0;0;0,3436235;0,3430344;13676,87;14953,91
272;3,425878;-0,008461584;14,9791;0,0149791;0;0;0;0,3806531;0,3799305;13746,99;15036,12
273;3,759204;-0,008433438;13,46192;0,01346192;0;0;0;0,4176894;0,4168195;12354,61;13518,15
274;4,09259;-0,008609645;13,85674;0,01385674;0;0;0;0,4547323;0,4537015;12716,95;13919,75
275;4,425797;-0,008580927;14,44856;0,01444856;0;0;0;0,4917552;0,4905501;13260,09;14519,61
276;4,759244;-0,008487544;13,61565;0,01361565;0;0;0;0,5288048;0,5274116;12495,69;13687,65
277;5,09245;-0,008657688;12,92551;0,01292551;0;0;0;0,5658278;0,564233;11862,32;12998,65
278;5,425956;-0,008692558;15,26022;0,01526022;0;0;0;0,602884;0,6010739;14004,99;15352,23
279;5,759103;-0,008600552;13,5741;0,0135741;0;0;0;0,6399003;0,6378617;12457,56;13660,96
280;6,092669;-0,008746595;14,00435;0,01400435;0;0;0;0,6769632;0,6746821;12852,42;14099,16
281;6,425876;-0,008853872;12,95086;0,01295086;0;0;0;0,7139862;0,7114494;11885,58;13043,33
282;6,759262;-0,008729074;13,19905;0,01319905;0;0;0;0,7510291;0,7482229;12113,36;13298,18
283;7,092528;-0,008851908;12,10998;0,01210998;0;0;0;0,7880587;0,7849697;11113,87;12205,41
284;7,425855;-0,009026418;12,87637;0,01287637;0;0;0;0,825095;0,8217097;11817,22;12982,61
285;7,759301;-0,008912928;13,23292;0,01323292;0;0;0;0,8621445;0,8584493;12144,44;13347,01
286;8,092328;-0,008972699;11,42963;0,01142962;0;0;0;0,8991476;0,8951293;10489,48;11532,39
287;8,426013;-0,009126873;12,66298;0,01266298;0;0;0;0,9362237;0,9318683;11621,38;12781,53
288;8,759161;-0,00901567;12,02932;0,01202932;0;0;0;0,9732401;0,9685346;11039,84;12146,39
289;9,092725;-0,00904914;12,91964;0,01291964;0;0;0;1,010303;1,005233;11856,93;13050,16
290;9,425872;-0,009199894;11,72705;0,01172705;0;0;0;1,047319;1,041873;10762,44;11849,87
291;9,759319;-0,009179647;12,16112;0,01216112;0;0;0;1,084369;1,078532;11160,8;12292,99
292;10,09247;-0,009119246;11,92106;0,01192106;0;0;0;1,121385;1,115144;10940,49;12054,74
293;10,42597;-0,009295677;10,90883;0,01090883;0;0;0;1,158441;1,151783;10011,52;11035,2
294;10,75918;-0,00930762;10,91915;0,01091915;0;0;0;1,195464;1,188375;10020,99;11049,69
295;11,0925;-0,009190016;10,42674;0,01042674;0;0;0;1,232501;1,224967;9569,084;10555,25
296;11,42583;-0,009321177;9,689564;0,009689565;0;0;0;1,269537;1,261546;8892,545;9812,577
297;11,75916;-0,00943716;10,05096;0,01005096;0;0;0;1,306573;1,298111;9224,212;10182,28
298;12,09266;-0,009254807;10,50275;0,01050275;0;0;0;1,343629;1,334683;9638,84;10643,87
299;12,42593;-0,009323006;10,24159;0,01024159;0;0;0;1,380659;1,371215;9399,163;10382,99
300;12,7592;-0,009365721;9,665142;0,009665142;0;0;0;1,417689;1,407733;8870,132;9802,164
301;13,09258;-0,009232674;10,06001;0,01006001;0;0;0;1,454732;1,444252;9232,521;10206,36
302;13,42585;-0,009224047;10,1626;0,0101626;0;0;0;1,491761;1,480744;9326,667;10314,2
303;13,75924;-0,009306289;10,19216;0,01019216;0;0;0;1,528804;1,517236;9353,797;10347,98
304;14,0925;-0,009191102;9,044303;0,009044304;0;0;0;1,565834;1,553701;8300,36;9185,922
305;14,42595;-0,008974525;10,60362;0,01060362;0;0;0;1,602883;1,590173;9731,413;10773,58
306;14,75916;-0,009129375;9,729697;0,009729697;0;0;0;1,639906;1,626605;8929,377;9889,255
307;15,0926;-0,009107475;9,33796;0,00933796;0;0;0;1,676956;1,66305;8569,862;9494,553
308;15,42587;-0,008841481;9,593881;0,009593882;0;0;0;1,713985;1,699462;8804,732;9758,319
309;15,75919;-0,0089352;9,490514;0,009490514;0;0;0;1,751022;1,735868;8709,868;9656,695
310;16,09258;-0,008975615;10,26239;0,01026239;0;0;0;1,788064;1,772267;9418,253;10445,89
311;16,42585;-0,0086894;9,694214;0,009694214;0;0;0;1,825094;1,808639;8896,813;9871,142
312;16,75923;-0,008873889;10,58106;0,01058106;0;0;0;1,862137;1,845012;9710,707;10778,09
313;17,09244;-0,008787331;9,234103;0,009234103;0;0;0;1,89916;1,881351;8474,549;9409,474
314;17,42595;-0,008277593;9,215211;0,009215211;0;0;0;1,936216;1,91771;8457,21;9393,638
315;17,75915;-0,008767422;8,983712;0,008983713;0;0;0;1,973239;1,954023;8244,753;9160,982
316;18,09266;-0,008648319;10,24785;0,01024785;0;0;0;2,010295;1,990356;9404,912;10453,87
317;18,42581;-0,007994479;8,174591;0,008174592;0;0;0;2,047312;2,026636;7502,187;8341,951
318;18,75931;-0,008634371;9,392139;0,00939214;0;0;0;2,084368;2,062942;8619,585;9587,906
319;19,09258;-0,008505746;9,264839;0,009264839;0;0;0;2,121397;2,099209;8502,756;9461,383
320;19,42591;-0,007786743;9,220644;0,009220644;0;0;0;2,158434;2,13547;8462,196;9419,666
321;19,75923;-0,008552185;9,170624;0,009170624;0;0;0;2,19547;2,171717;8416,291;9371,963
322;20,09256;-0,008517081;8,158489;0,008158489;0;0;0;2,232507;2,207951;7487,409;8340,628
323;20,42588;-0,007643013;8,499032;0,008499032;0;0;0;2,269542;2,244172;7799,941;8691,921
324;20,75933;-0,008478598;9,847405;0,009847404;0;0;0;2,306592;2,280392;9037,402;10074,54
325;21,09254;-0,008469581;8,567161;0,008567161;0;0;0;2,343615;2,316574;7862,465;8767,942
326;21,42586;-0,008485627;7,851471;0,007851471;0;0;0;2,380651;2,352756;7205,646;8038,387
327;21,75919;-0,008515455;6,853774;0,006853774;0;0;0;2,417688;2,388924;6290,014;7019,477
328;22,09252;-0,008555432;8,073622;0,008073622;0;0;0;2,454724;2,42508;7409,523;8271,807
329;22,42578;-0,008458337;8,201657;0,008201657;0;0;0;2,491754;2,461216;7527,026;8406,022
330;22,75923;-0,008537873;8,30659;0,00830659;0;0;0;2,528803;2,497358;7623,328;8516,647
331;23,09243;-0,008625343;6,997617;0,006997616;0;0;0;2,565826;2,533461;6422,025;7177,163
332;23,42594;-0,00865139;7,638473;0,007638473;0;0;0;2,602882;2,569584;7010,167;7837,293
333;23,75921;-0,008672788;8,058352;0,008058352;0;0;0;2,639912;2,605668;7395,509;8271,086
334;24,09259;-0,008696323;7,740616;0,007740616;0;0;0;2,676955;2,641751;7103,909;7947,829
335;24,42598;-0,008735067;8,112679;0,008112679;0;0;0;2,713998;2,677822;7445,367;8332,857
335,378;24,55196;-0,00778;7,32382;0,00732382;0;0;0;2,727995;2,691449;6721,396;7523,613