File: scratch/KRAMS/src/apps/scratch/axel/tensile_tests/pullout153.raw
"Prüfungstyp";"Manuell"
"Methodenname:";"C:\INSTRON\USER\TEMPLATE\Zugversuch Textilbeton.mtM"
"Name:";"Zugversuche Carbon"
"Prüfer";""
"Firma:";""
"Abteilung:";""
"Prüfdatum:";"01.01.97"
"Temperatur:";""
"Feuchtigkeit:";""
"Anmerkung 1:";""
"Anmerkung 2:";""
"Anmerkung 3:";""
"Geometrie:";"Rectangular"
"Probe";1
"Probenname:";"V19-Z-3-1"
"Breite:";100;"mm"
"Dicke:";10;"mm"
"Länge:";900;"mm"
"Durchmesser:";1.000000;"mm"
"Innendurchmesser:";0.500000;"mm"
"Außendurchm.:";1.000000;"mm"
"Wandstärke:";0.500000;"mm"
"Querschnitt:";1000;"mm*mm"
"Lineare Dichte:";1.000000;"den"
"Schlittengewicht:";9.806650;"N"
"Lade-Spannweite:";0.000000;"mm"
"Unterstütz.-Spannweite:";1.000000;"mm"
"Spannweitenverhältnis:";"2"
"Vorrichtungstyp:";"3-point"
"Kommentar:";""
"Eingefügt"
"Endbreite:";100;"mm"
"Enddicke:";10;"mm"
"Endlänge:";900;"mm"
"Enddurchmesser:";1.000000;"mm"
"Endinnendurchmesser:";0.500000;"mm"
"Endaußendurchmesser:";1.000000;"mm"
"Endwandstärke:";0.500000;"mm"
"Endquerschnitt:";1000;"mm*mm"
"Lineare Enddichte:";1.000000;"den"
"Zeit sec";"Verformung mm";"Dehnung 1 %";"Kraft N";"Spannung MPa";"Anz. der Zykl. ";"Zyklenzahl gesamt ";"Wiederholungswert ";"Dehnung [Trav.] %";"Tatsächliche dehnung %";"Zähigkeit gf/tex";"Tatsächliche spannung Pa"
0;0;-0,008726754;-24,68571;-0,02468571;0;0;0;0;0;-22655,18;-24685,71
0,5;0,001136;-0,009094172;-23,95627;-0,02395627;0;0;0;0,0001262223;0,0001262222;-21985,73;-23956,3
1;0,002869896;-0,009325348;-23,4825;-0,0234825;0;0;0;0,0003188773;0,0003188768;-21550,94;-23482,58
1,5;0,005141897;-0,009230287;-19,46582;-0,01946582;0;0;0;0,0005713218;0,0005713202;-17864,65;-19465,93
2;0,006636634;-0,009278763;-18,49348;-0,01849348;0;0;0;0,0007374038;0,000737401;-16972,29;-18493,61
2,5;0,008490108;-0,009191423;-17,49979;-0,01749979;0;0;0;0,0009433453;0,0009433408;-16060,34;-17499,96
3;0,01010442;-0,009368865;-17,06366;-0,01706366;0;0;0;0,001122714;0,001122707;-15660,08;-17063,85
3,5;0,01165895;-0,009183714;-16,1708;-0,0161708;0;0;0;0,001295439;0,001295431;-14840,67;-16171,01
4;0,01327327;-0,009350105;-15,24862;-0,01524862;0;0;0;0,001474808;0,001474797;-13994,34;-15248,85
4,5;0,01500716;-0,009174523;-14,05951;-0,01405951;0;0;0;0,001667463;0,001667449;-12903,04;-14059,74
5;0,01662148;-0,009313617;-12,61927;-0,01261927;0;0;0;0,001846831;0,001846814;-11581,27;-12619,51
5,5;0,01841516;-0,009129802;-11,2755;-0,0112755;0;0;0;0,002046129;0,002046108;-10348,03;-11275,73
6;0,02008927;-0,009340472;-10,31035;-0,01031035;0;0;0;0,002232141;0,002232116;-9462,269;-10310,58
6,5;0,02170358;-0,009219913;-10,1506;-0,0101506;0;0;0;0,002411509;0,00241148;-9315,66;-10150,85
7;0,02325811;-0,009372446;-10,09402;-0,01009402;0;0;0;0,002584235;0,002584201;-9263,736;-10094,28
7,5;0,02499201;-0,009132284;-8,55688;-0,00855688;0;0;0;0,00277689;0,002776851;-7853,03;-8557,117
8;0,02666611;-0,009380645;-7,790241;-0,007790241;0;0;0;0,002962901;0,002962857;-7149,452;-7790,472
8,5;0,02834022;-0,009232954;-7,275266;-0,007275266;0;0;0;0,003148913;0,003148863;-6676,836;-7275,495
9;0,03013391;-0,009296915;-5,41324;-0,00541324;0;0;0;0,003348212;0,003348156;-4967,972;-5413,421
9,5;0,03174822;-0,009274922;-5,890186;-0,005890186;0;0;0;0,00352758;0,003527518;-5405,687;-5890,394
10;0,03324296;-0,009378046;-5,639257;-0,005639257;0;0;0;0,003693662;0,003693593;-5175,398;-5639,465
10,5;0,03497685;-0,009186952;-4,654823;-0,004654823;0;0;0;0,003886317;0,003886241;-4271,939;-4655,004
11;0,03665096;-0,009450645;-3,812959;-0,003812959;0;0;0;0,004072329;0,004072246;-3499,323;-3813,115
11,5;0,03832506;-0,009205696;-3,22643;-0,00322643;0;0;0;0,00425834;0,004258249;-2961,039;-3226,567
12;0,04011875;-0,009269737;-1,568006;-0,001568006;0;0;0;0,004457639;0,004457539;-1439,029;-1568,076
12,5;0,04173307;-0,009342724;-1,827892;-0,001827892;0;0;0;0,004637007;0,0046369;-1677,538;-1827,976
13;0,04328759;-0,009292296;-1,183609;-0,001183609;0;0;0;0,004809733;0,004809617;-1086,251;-1183,666
13,5;0,0449617;-0,009242173;-0,8634262;-0,0008634262;0;0;0;0,004995744;0,00499562;-792,4048;-863,4694
14;0,0466358;-0,009459941;0,2307372;0,0002307372;0;0;0;0,005181755;0,005181621;211,7578;230,7491
14,5;0,0483697;-0,009127957;-0,09967516;-9,967516e-005;0;0;0;0,005374411;0,005374267;-91,47634;-99,68052
15;0,05010359;-0,009307761;2,289023;0,002289023;0;0;0;0,005567066;0,005566911;2100,739;2289,151
15,5;0,05171791;-0,00930849;2,735773;0,002735773;0;0;0;0,005746434;0,005746269;2510,74;2735,93
16;0,05333222;-0,00925391;2,932669;0,002932669;0;0;0;0,005925803;0,005925627;2691,441;2932,843
16,5;0,05494654;-0,00922726;2,403794;0,002403794;0;0;0;0,006105172;0,006104985;2206,069;2403,941
17;0,05662065;-0,009407965;3,42239;0,00342239;0;0;0;0,006291183;0,006290985;3140,88;3422,605
17,5;0,05835455;-0,009111099;4,328124;0,004328124;0;0;0;0,006483839;0,006483629;3972,113;4328,405
18;0,06014823;-0,009424839;6,282994;0,006282994;0;0;0;0,006683137;0,006682913;5766,184;6283,414
18,5;0,06170275;-0,009289927;5,320976;0,005320976;0;0;0;0,006855862;0,006855627;4883,297;5321,341
19;0,06337686;-0,009153897;5,579149;0,005579149;0;0;0;0,007041873;0,007041625;5120,234;5579,542
19,5;0,06493139;-0,009266991;6,234639;0,006234638;0;0;0;0,007214599;0,007214339;5721,806;6235,088
20;0,06660549;-0,009320516;7,349945;0,007349946;0;0;0;0,00740061;0,007400336;6745,373;7350,489
20,5;0,06833939;-0,009035892;7,021736;0,007021735;0;0;0;0,007593265;0,007592977;6444,16;7022,269
21;0,07007328;-0,009363739;8,754602;0,008754602;0;0;0;0,007785921;0,007785617;8034,488;8755,283
21,5;0,07174739;-0,00914135;8,949589;0,008949589;0;0;0;0,007971932;0,007971614;8213,438;8950,303
22;0,07342149;-0,00910794;9,783916;0,009783916;0;0;0;0,008157943;0,008157611;8979,136;9784,714
22,5;0,07491623;-0,009319749;9,056431;0,009056431;0;0;0;0,008324025;0,008323678;8311,49;9057,185
23;0,07659034;-0,009245033;10,64766;0,01064766;0;0;0;0,008510037;0,008509675;9771,829;10648,56
23,5;0,07832424;-0,009095322;10,64315;0,01064315;0;0;0;0,008702693;0,008702314;9767,697;10644,08
24;0,08005813;-0,009392211;11,12798;0,01112798;0;0;0;0,008895348;0,008894952;10212,64;11128,97
24,5;0,08179202;-0,00912484;12,68901;0,01268901;0;0;0;0,009088002;0,009087589;11645,27;12690,16
25;0,08346613;-0,009156817;13,428;0,013428;0;0;0;0,009274014;0,009273585;12323,47;13429,24
25,5;0,08496087;-0,009329658;12,99236;0,01299236;0;0;0;0,009440097;0,009439651;11923,66;12993,58
26;0,08657519;-0,009121172;13,10972;0,01310972;0;0;0;0,009619465;0,009619003;12031,38;13110,98
26,5;0,08830908;-0,009093765;14,27328;0,01427328;0;0;0;0,00981212;0,009811639;13099,23;14274,68
27;0,09004297;-0,009294405;14,86725;0,01486725;0;0;0;0,01000477;0,01000427;13644,34;14868,74
27,5;0,09177687;-0,008982109;16,33994;0,01633994;0;0;0;0,01019743;0,01019691;14995,89;16341,61
28;0,09345097;-0,009147807;15,94497;0,01594497;0;0;0;0,01038344;0,0103829;14633,41;15946,63
28,5;0,09494571;-0,009291898;15,9738;0,0159738;0;0;0;0,01054952;0,01054897;14659,87;15975,48
29;0,09661982;-0,009017039;16,27411;0,01627411;0;0;0;0,01073554;0,01073496;14935,48;16275,86
29,5;0,09829392;-0,009137621;17,13492;0,01713492;0;0;0;0,01092155;0,01092095;15725,48;17136,79
30;0,1000278;-0,009264236;17,1196;0,0171196;0;0;0;0,0111142;0,01111358;15711,42;17121,5
30,5;0,1017617;-0,008955694;18,13056;0,01813056;0;0;0;0,01130686;0,01130622;16639,22;18132,61
31;0,1034358;-0,00913509;18,57285;0,01857285;0;0;0;0,01149287;0,01149221;17045,14;18574,99
31,5;0,1049904;-0,00927615;19,42201;0,01942201;0;0;0;0,01166559;0,01166491;17824,45;19424,28
32;0,1066047;-0,009010309;19,12948;0,01912948;0;0;0;0,01184496;0,01184426;17555,98;19131,75
32,5;0,1082788;-0,009151027;19,37091;0,01937091;0;0;0;0,01203097;0,01203025;17777,55;19373,24
33;0,1100127;-0,009269397;19,47188;0,01947188;0;0;0;0,01222363;0,01222288;17870,21;19474,26
33,5;0,1117466;-0,009034178;21,18835;0,02118835;0;0;0;0,01241628;0,01241551;19445,5;21190,98
34;0,1134207;-0,009161491;21,47912;0,02147912;0;0;0;0,0126023;0,0126015;19712,35;21481,83
34,5;0,115035;-0,009275898;21,48671;0,02148671;0;0;0;0,01278166;0,01278085;19719,31;21489,45
35;0,1165895;-0,0089776;20,75364;0,02075364;0;0;0;0,01295439;0,01295355;19046,54;20756,33
35,5;0,1182636;-0,009168377;21,70166;0,02170166;0;0;0;0,0131404;0,01313954;19916,58;21704,52
36;0,1199975;-0,009185125;21,53555;0,02153555;0;0;0;0,01333306;0,01333217;19764,14;21538,42
36,5;0,1216118;-0,008973497;21,81908;0,02181908;0;0;0;0,01351243;0,01351151;20024,34;21822,03
37;0,1234653;-0,009167238;22,57089;0,02257089;0;0;0;0,01371837;0,01371743;20714,31;22573,98
37,5;0,1250796;-0,00920795;23,65541;0,02365541;0;0;0;0,01389773;0,01389677;21709,62;23658,7
38;0,1265744;-0,009066059;22,5331;0,0225331;0;0;0;0,01406382;0,01406283;20679,63;22536,27
38,5;0,1283082;-0,009232872;23,0677;0,02306771;0;0;0;0,01425647;0,01425546;21170,26;23070,99
39;0,1299824;-0,00915113;23,27395;0,02327395;0;0;0;0,01444248;0,01444144;21359,54;23277,31
39,5;0,1316565;-0,009095857;24,37722;0,02437722;0;0;0;0,0146285;0,01462743;22372,06;24380,78
40;0,1334501;-0,009192685;23,85842;0,02385842;0;0;0;0,01482779;0,01482669;21895,94;23861,96
40,5;0,1350645;-0,009131774;24,20831;0,02420831;0;0;0;0,01500716;0,01500604;22217,05;24211,95
41;0,1366788;-0,008926666;24,84667;0,02484667;0;0;0;0,01518653;0,01518538;22802,9;24850,45
41,5;0,1382931;-0,009227767;24,71609;0,02471609;0;0;0;0,0153659;0,01536472;22683,06;24719,89
42;0,1399074;-0,00908084;24,7762;0,0247762;0;0;0;0,01554527;0,01554406;22738,22;24780,05
42,5;0,1416413;-0,008994644;25,2391;0,0252391;0;0;0;0,01573792;0,01573668;23163,04;25243,07
43;0,143435;-0,009105557;26,13842;0,02613842;0;0;0;0,01593722;0,01593595;23988,39;26142,58
43,5;0,1450493;-0,009056072;25,8687;0,0258687;0;0;0;0,01611659;0,01611529;23740,86;25872,86
44;0,1466636;-0,008997684;26,15021;0,02615021;0;0;0;0,01629596;0,01629463;23999,22;26154,48
44,5;0,1482779;-0,009148233;26,32391;0,02632391;0;0;0;0,01647533;0,01647397;24158,63;26328,25
45;0,149952;-0,009067536;25,87726;0,02587726;0;0;0;0,01666134;0,01665995;23748,72;25881,57
45,5;0,1516859;-0,008955147;26,26778;0,02626778;0;0;0;0,01685399;0,01685257;24107,11;26272,2
46;0,1534198;-0,009093718;27,1738;0,0271738;0;0;0;0,01704665;0,0170452;24938,61;27178,43
46,5;0,1550342;-0,009005496;26,76117;0,02676117;0;0;0;0,01722602;0,01722453;24559,92;26765,78
47;0,156768;-0,009070226;27,02423;0,02702423;0;0;0;0,01741867;0,01741715;24801,34;27028,94
47,5;0,1583226;-0,009088175;26,60626;0,02660626;0;0;0;0,0175914;0,01758985;24417,75;26610,94
48;0,1599369;-0,009075514;27,05928;0,02705928;0;0;0;0,01777076;0,01776919;24833,51;27064,09
48,5;0,1617306;-0,009006569;27,66974;0,02766974;0;0;0;0,01797006;0,01796845;25393,75;27674,71
49;0,1634047;-0,009171598;28,00539;0,02800539;0;0;0;0,01815608;0,01815443;25701,79;28010,47
49,5;0,1650788;-0,008958824;27,76258;0,02776258;0;0;0;0,01834209;0,01834041;25478,96;27767,68
50;0,1667529;-0,009061535;27,15956;0,02715956;0;0;0;0,0185281;0,01852638;24925,54;27164,59
50,5;0,1683074;-0,009008713;27,44524;0,02744524;0;0;0;0,01870083;0,01869908;25187,72;27450,37
51;0,1699217;-0,009113831;27,24922;0,02724922;0;0;0;0,01888019;0,01887841;25007,83;27254,37
51,5;0,1715958;-0,008938429;27,56334;0,02756334;0;0;0;0,0190662;0,01906439;25296,11;27568,59
52;0,1733895;-0,00915403;27,62961;0,0276296;0;0;0;0,0192655;0,01926365;25356,92;27634,93
52,5;0,1750636;-0,008944458;28,1785;0,0281785;0;0;0;0,01945151;0,01944962;25860,66;28183,98
53;0,1767377;-0,009060567;28,54503;0,02854503;0;0;0;0,01963753;0,0196356;26197,05;28550,64
53,5;0,1784119;-0,008983777;28,61654;0,02861654;0;0;0;0,01982354;0,01982157;26262,67;28622,21
54;0,1799066;-0,009067692;27,95527;0,02795527;0;0;0;0,01998962;0,01998762;25655,8;27960,86
54,5;0,1816405;-0,008950335;28,47915;0,02847916;0;0;0;0,02018227;0,02018024;26136,59;28484,9
55;0,1834342;-0,009153203;27,2524;0,0272524;0;0;0;0,02038157;0,0203795;25010,75;27257,96
55,5;0,1850485;-0,008845773;27,35519;0,02735518;0;0;0;0,02056094;0,02055883;25105,07;27360,81
56;0,1867824;-0,008996403;27,56192;0,02756192;0;0;0;0,0207536;0,02075144;25294,8;27567,64
56,5;0,1883967;-0,008894589;26,40066;0,02640066;0;0;0;0,02093296;0,02093077;24229,06;26406,18
57;0,1898914;-0,009027357;26,03647;0,02603647;0;0;0;0,02109905;0,02109682;23894,83;26041,96
57,5;0,1915655;-0,008926133;26,07969;0,02607969;0;0;0;0,02128506;0,02128279;23934,49;26085,24
58;0,193419;-0,009012223;25,857;0,025857;0;0;0;0,021491;0,02148869;23730,12;25862,56
58,5;0,1949735;-0,008961478;25,65946;0,02565946;0;0;0;0,02166373;0,02166138;23548,84;25665,02
59;0,1967672;-0,00901425;26,64429;0,02664429;0;0;0;0,02186302;0,02186063;24452,65;26650,12
59,5;0,1984413;-0,008902741;26,64419;0,02664419;0;0;0;0,02204903;0,0220466;24452,56;26650,07
60;0,1999361;-0,008974212;25,76944;0,02576944;0;0;0;0,02221512;0,02221265;23649,76;25775,16
60,5;0,2016102;-0,008939116;24,52997;0,02452997;0;0;0;0,02240113;0,02239862;22512,24;24535,46
61;0,2033441;-0,00902897;25,4193;0,0254193;0;0;0;0,02259379;0,02259123;23328,43;25425,05
61,5;0,2050182;-0,008809355;25,40961;0,02540961;0;0;0;0,0227798;0,0227772;23319,54;25415,4
62;0,2067521;-0,00898178;25,31398;0,02531398;0;0;0;0,02297245;0,02296981;23231,77;25319,79
62,5;0,2084262;-0,008903832;25,26376;0,02526376;0;0;0;0,02315846;0,02315578;23185,68;25269,61
63;0,2099807;-0,009027565;24,82876;0,02482876;0;0;0;0,02333119;0,02332847;22786,46;24834,55
63,5;0,211595;-0,00897053;24,47911;0,02447911;0;0;0;0,02351056;0,02350779;22465,57;24484,87
64;0,2133289;-0,009002839;24,66573;0,02466573;0;0;0;0,02370321;0,0237004;22636,84;24671,58
64,5;0,215003;-0,008875134;24,60788;0,02460788;0;0;0;0,02388922;0,02388637;22583,75;24613,76
65;0,2167369;-0,009026438;25,39175;0,02539175;0;0;0;0,02408188;0,02407898;23303,14;25397,86
65,5;0,218411;-0,008913283;25,38627;0,02538627;0;0;0;0,02426789;0,02426495;23298,11;25392,43
66;0,2200253;-0,009023857;24,77668;0,02477668;0;0;0;0,02444726;0,02444427;22738,67;24782,74
66,5;0,2215799;-0,008963537;23,99443;0,02399443;0;0;0;0,02461998;0,02461695;22020,76;24000,34
67;0,2233138;-0,009045437;24,12893;0,02412893;0;0;0;0,02481264;0,02480956;22144,2;24134,92
67,5;0,2249878;-0,008882112;24,69867;0,02469867;0;0;0;0,02499865;0,02499553;22667,07;24704,85
68;0,226662;-0,009039004;24,38842;0,02438842;0;0;0;0,02518466;0,02518149;22382,34;24394,57
68,5;0,2284556;-0,008928462;24,30615;0,02430615;0;0;0;0,02538396;0,02538074;22306,84;24312,32
69;0,23007;-0,009032068;24,12266;0,02412266;0;0;0;0,02556333;0,02556006;22138,45;24128,83
69,5;0,2315647;-0,009007039;24,06144;0,02406144;0;0;0;0,02572941;0,0257261;22082,25;24067,63
70;0,2332986;-0,009020119;23,76122;0,02376122;0;0;0;0,02592207;0,02591871;21806,73;23767,38
70,5;0,2349727;-0,008909882;23,71977;0,02371977;0;0;0;0,02610808;0,02610467;21768,69;23725,96
71;0,2366468;-0,009040264;24,0376;0,0240376;0;0;0;0,02629409;0,02629063;22060,38;24043,92
71,5;0,2384405;-0,008942683;24,69236;0,02469236;0;0;0;0,02649339;0,02648988;22661,28;24698,9
72;0,2400548;-0,009052993;23,2255;0,0232255;0;0;0;0,02667276;0,0266692;21315,07;23231,69
72,5;0,2416691;-0,008938345;23,15536;0,02315536;0;0;0;0,02685213;0,02684852;21250,71;23161,58
73;0,3188574;-0,009073616;23,35157;0,02335157;0;0;0;0,03542859;0,03542232;21430,78;23359,85
73,5;0,4920675;-0,008973418;22,5495;0,0225495;0;0;0;0,05467416;0,05465922;20694,68;22561,83
74;0,6585215;-0,009067964;21,15297;0,02115297;0;0;0;0,07316905;0,0731423;19413,02;21168,44
74,5;0,8252146;-0,008972228;20,54779;0,02054779;0;0;0;0,09169051;0,0916485;18857,62;20566,63
75;0,9919674;-0,009147726;20,86949;0,02086949;0;0;0;0,1102186;0,1101579;19152,86;20892,49
75,5;1,158481;-0,009001759;19,87923;0,01987923;0;0;0;0,1287201;0,1286373;18244,06;19904,82
76;1,324995;-0,009119558;18,85476;0,01885476;0;0;0;0,1472217;0,1471134;17303,86;18882,52
76,5;1,491927;-0,009041894;19,37179;0,01937179;0;0;0;0,1657697;0,1656324;17778,36;19403,91
77;1,65862;-0,009108847;18,90469;0,01890469;0;0;0;0,1842911;0,1841215;17349,67;18939,53
77,5;1,825194;-0,009009713;18,94085;0,01894085;0;0;0;0,2027993;0,202594;17382,87;18979,27
78;1,991827;-0,009219699;17,35702;0,01735702;0;0;0;0,2213141;0,2210696;15929,31;17395,43
78,5;2,15852;-0,008999346;16,33901;0,01633901;0;0;0;0,2398356;0,2395484;14995,04;16378,2
79;2,325273;-0,009142614;16,66326;0,01666326;0;0;0;0,2583637;0,2580305;15292,61;16706,31
79,5;2,491847;-0,009087368;16,89363;0,01689363;0;0;0;0,2768718;0,2764893;15504,04;16940,4
80;2,65842;-0,009200778;17,02807;0,01702807;0;0;0;0,29538;0,2949446;15627,42;17078,37
80,5;2,825233;-0,009086152;16,95667;0,01695667;0;0;0;0,3139147;0,3134231;15561,89;17009,9
81;2,991926;-0,009243152;17,22218;0,01722218;0;0;0;0,3324362;0,3318849;15805,56;17279,43
81,5;3,158559;-0,009092399;16,96817;0,01696817;0;0;0;0,350951;0,3503366;15572,45;17027,72
82;3,325193;-0,00921951;16,54971;0,01654971;0;0;0;0,3694659;0,368785;15188,41;16610,85
82,5;3,491826;-0,009179196;16,60521;0,01660521;0;0;0;0,3879806;0,3872299;15239,34;16669,63
83;3,658399;-0,009232265;15,89965;0,01589965;0;0;0;0,4064888;0,4056649;14591,82;15964,28
83,5;3,825212;-0,009160827;16,21543;0,01621543;0;0;0;0,4250236;0,4241229;14881,62;16284,35
84;3,991845;-0,009315974;15,42711;0,01542711;0;0;0;0,4435384;0,4425576;14158,15;15495,53
84,5;4,158479;-0,00914935;15,0965;0,0150965;0;0;0;0,4620532;0,460989;13854,73;15166,26
85;4,325172;-0,009270129;16,86632;0,01686632;0;0;0;0,4805747;0,4794236;15478,97;16947,37
85,5;4,491925;-0,009206284;17,3393;0,0173393;0;0;0;0,4991027;0,4978614;15913,05;17425,84
86;4,658617;-0,009285753;16,8927;0,0168927;0;0;0;0,5176241;0,5162891;15503,18;16980,14
86,5;4,825132;-0,009203515;16,65611;0,01665611;0;0;0;0,5361257;0,5346937;15286,06;16745,41
87;4,991825;-0,009308449;17,42989;0,01742989;0;0;0;0,5546472;0,5531147;15996,19;17526,57
87,5;5,158577;-0,009182122;16,2884;0,0162884;0;0;0;0,5731753;0,5715389;14948,59;16381,76
88;5,325271;-0,00934672;17,35599;0,01735599;0;0;0;0,5916967;0,5899531;15928,37;17458,69
88,5;5,491724;-0,009272303;16,46122;0,01646122;0;0;0;0,6101916;0,6083375;15107,2;16561,66
89;5,658537;-0,009316132;17,8531;0,0178531;0;0;0;0,6287263;0,6267581;16384,59;17965,35
89,5;5,82529;-0,009224286;17,47463;0,01747463;0;0;0;0,6472545;0,6451688;16037,25;17587,73
90;5,991864;-0,009347341;16,95446;0,01695446;0;0;0;0,6657627;0,6635562;15559,87;17067,34
90,5;6,158497;-0,00921478;16,61407;0,01661407;0;0;0;0,6842775;0,681947;15247,47;16727,75
91;6,32513;-0,009324628;16,72468;0,01672468;0;0;0;0,7027922;0,7003342;15348,98;16842,22
91,5;6,491883;-0,009212677;17,85398;0,01785398;0;0;0;0,7213203;0,7187313;16385,4;17982,77
92;6,658457;-0,0093031;17,74141;0,01774141;0;0;0;0,7398285;0,7371052;16282,09;17872,67
92,5;6,82515;-0,009190463;16,77367;0,01677367;0;0;0;0,75835;0,7554889;15393,94;16900,87
93;6,991843;-0,0093592;17,08778;0,01708778;0;0;0;0,7768714;0,7738693;15682,22;17220,53
93,5;7,158536;-0,009202907;17,08333;0,01708333;0;0;0;0,7953929;0,7922463;15678,13;17219,21
94;7,32505;-0,009349205;16,56929;0,01656928;0;0;0;0,8138945;0,8106002;15206,37;16704,14
94,5;7,491803;-0,009250257;15,6472;0,0156472;0;0;0;0,8324225;0,828977;14360,14;15777,46
95;7,658556;-0,00930068;16,54809;0,01654809;0;0;0;0,8509507;0,8473505;15186,92;16688,91
95,5;7,825189;-0,009269005;15,06175;0,01506175;0;0;0;0,8694654;0,8657073;13822,84;15192,71
96;7,991942;-0,009414039;15,93518;0,01593518;0;0;0;0,8879936;0,8840741;14624,43;16076,69
96,5;8,158634;-0,009250391;15,11011;0,01511011;0;0;0;0,9065149;0,9024308;13867,22;15247,08
97;8,325149;-0,009349908;15,63061;0,01563061;0;0;0;0,9250165;0,9207645;14344,91;15775,2
97,5;8,491782;-0,009243874;14,97977;0,01497977;0;0;0;0,9435313;0,9391078;13747,6;15121,11
98;8,658595;-0,009311651;15,30715;0,01530715;0;0;0;0,9620661;0,9574677;14048,05;15454,42
98,5;8,825168;-0,009264053;14,55226;0,01455226;0;0;0;0,9805742;0,9757977;13355,26;14694,95
99;8,991801;-0,009367375;14,953;0,014953;0;0;0;0,999089;0,9941311;13723,04;15102,39
99,5;9,158494;-0,009174561;14,65298;0,01465298;0;0;0;1,01761;1,012468;13447,7;14802,09
100;9,325188;-0,009403211;15,06562;0,01506562;0;0;0;1,036132;1,030801;13826,39;15221,72
100,5;9,491821;-0,009257401;15,71827;0,01571827;0;0;0;1,054647;1,049124;14425,36;15884,04
101;9,658513;-0,009281251;16,93807;0,01693807;0;0;0;1,073168;1,067451;15544,82;17119,84
101,5;9,825207;-0,009297126;16,49602;0,01649602;0;0;0;1,09169;1,085774;15139,13;16676,1
102;9,99196;-0,009395543;16,94845;0,01694844;0;0;0;1,110218;1,1041;15554,34;17136,61
102,5;10,15847;-0,009236247;15,25141;0,01525141;0;0;0;1,128719;1,122397;13996,89;15423,55
103;10,32511;-0,009382556;15,63066;0,01563066;0;0;0;1,147234;1,140703;14344,96;15809,98
103,5;10,49186;-0,009206953;17,247;0,017247;0;0;0;1,165762;1,15902;15828,34;17448,05
104;10,65861;-0,009322202;17,59478;0,01759478;0;0;0;1,18429;1,177332;16147,52;17803,16
104,5;10,82519;-0,009155744;15,01193;0,01501193;0;0;0;1,202798;1,195622;13777,12;15192,49
105;10,99182;-0,009327459;14,79492;0,01479492;0;0;0;1,221313;1,213916;13577,95;14975,61
105,5;11,15851;-0,009182065;15,67378;0,01567378;0;0;0;1,239835;1,232212;14384,53;15868,11
106;11,32521;-0,009353761;17,21009;0,01721009;0;0;0;1,258356;1,250505;15794,47;17426,66
106,5;11,4919;-0,009212855;17,513;0,017513;0;0;0;1,276878;1,268794;16072,46;17736,62
107;11,65853;-0,009347032;16,37107;0,01637107;0;0;0;1,295393;1,287074;15024,46;16583,14
107,5;11,82516;-0,009194025;17,43616;0,01743616;0;0;0;1,313907;1,30535;16001,94;17665,25
108;11,99186;-0,00939734;17,36637;0,01736637;0;0;0;1,332429;1,32363;15937,89;17597,76
108,5;12,15855;-0,009189881;17,30739;0,01730739;0;0;0;1,35095;1,341906;15883,76;17541,2
109;12,32513;-0,009355558;15,23266;0,01523266;0;0;0;1,369458;1,360166;13979,69;15441,26
109,5;12,49176;-0,009180191;14,4139;0,0144139;0;0;0;1,387973;1,378429;13228,28;14613,96
110;12,65845;-0,009330742;15,21558;0,01521558;0;0;0;1,406495;1,396695;13964,01;15429,58
110,5;12,82532;-0,009172867;17,15924;0,01715924;0;0;0;1,425036;1,414978;15747,8;17403,77
111;12,99184;-0,009353691;16,32819;0,01632819;0;0;0;1,443538;1,433218;14985,11;16563,9
111,5;13,15841;-0,009184502;15,92814;0,01592814;0;0;0;1,462046;1,451461;14617,96;16161,01
112;13,32511;-0,009398243;16,65244;0,01665244;0;0;0;1,480567;1,469714;15282,69;16898,99
112,5;13,49192;-0,009140116;16,49338;0,01649337;0;0;0;1,499102;1,487976;15136,71;16740,63
113;13,65861;-0,009321051;15,98682;0,01598682;0;0;0;1,517623;1,506223;14671,82;16229,44
113,5;13,82506;-0,009220595;15,99993;0,01599993;0;0;0;1,536118;1,524439;14683,85;16245,71
114;13,99182;-0,00933345;15,8582;0,0158582;0;0;0;1,554646;1,542686;14553,77;16104,74
114,5;14,15863;-0,009187881;16,36143;0,01636142;0;0;0;1,573181;1,560935;15015,61;16618,82
115;14,32526;-0,009401125;15,94967;0,01594967;0;0;0;1,591696;1,579161;14637,72;16203,54
115,5;14,49178;-0,009148145;13,99544;0,01399544;0;0;0;1,610197;1,597371;12844,24;14220,79
116;14,65853;-0,009337948;14,44972;0,01444972;0;0;0;1,628726;1,615604;13261,16;14685,07
116,5;14,82528;-0,009151045;13,99563;0,01399563;0;0;0;1,647254;1,633834;12844,42;14226,18
117;14,99186;-0,009356101;13,35761;0,01335762;0;0;0;1,665762;1,65204;12258,88;13580,12
117,5;15,15849;-0,009168213;12,41278;0,01241278;0;0;0;1,684277;1,67025;11391,76;12621,84
118;15,32524;-0,009384077;10,85199;0,01085199;0;0;0;1,702805;1,68847;9959,357;11036,78
118,5;15,49194;-0,008712292;11,36697;0,01136697;0;0;0;1,721326;1,706679;10431,97;11562,63
119;15,65851;-0,009356091;12,0322;0,0120322;0;0;0;1,739834;1,724872;11042,48;12241,54
119,5;15,8252;-0,00914635;11,39687;0,01139687;0;0;0;1,758356;1,743075;10459,42;11597,27
120;15,99184;-0,009311262;13,54923;0,01354923;0;0;0;1,776871;1,761269;12434,73;13789,98
120,5;16,15841;-0,0091148;11,18637;0,01118637;0;0;0;1,795379;1,779452;10266,23;11387,21
121;16,32516;-0,009372726;11,00832;0,01100832;0;0;0;1,813907;1,797652;10102,82;11208
121,5;16,4918;-0,008779455;8,865457;0,008865457;0;0;0;1,832422;1,815835;8136,225;9027,909
122;16,65849;-0,009354666;9,967989;0,009967989;0;0;0;1,850943;1,834022;9148,068;10152,49
122,5;16,82506;-0,009141808;8,927908;0,008927908;0;0;0;1,869451;1,852192;8193,539;9094,811
123;16,99182;-0,009315813;8,686767;0,008686767;0;0;0;1,88798;1,870378;7972,233;8850,771
123,5;17,15857;-0,009128868;8,956833;0,008956833;0;0;0;1,906507;1,888561;8220,085;9127,595
124;17,32514;-0,009375424;8,596027;0,008596027;0;0;0;1,925016;1,906722;7888,958;8761,502
124,5;17,49177;-0,008971777;8,924824;0,008924824;0;0;0;1,943531;1,924885;8190,709;9098,281
125;17,65847;-0,009344815;7,407209;0,007407208;0;0;0;1,962052;1,943052;6797,926;7552,542
125,5;17,82534;-0,009142317;7,862816;0,007862816;0;0;0;1,980593;1,961235;7216,057;8018,546
126;17,99179;-0,009361883;7,483803;0,007483803;0;0;0;1,999088;1,979369;6868,22;7633,411
126,5;18,15854;-0,009151121;7,488649;0,007488649;0;0;0;2,017616;1,997532;6872,667;7639,741
127;18,3253;-0,009355186;7,998192;0,007998192;0;0;0;2,036144;2,015692;7340,297;8161,046
127,5;18,49193;-0,009095045;7,593925;0,007593925;0;0;0;2,054659;2,033836;6969,284;7749,954
128;18,65839;-0,009411494;6,941176;0,006941176;0;0;0;2,073154;2,051957;6370,226;7085,077
128,5;18,82514;-0,009146258;7,579389;0,007579389;0;0;0;2,091682;2,070107;6955,943;7737,926
129;18,99195;-0,009302653;8,253526;0,008253526;0;0;0;2,110217;2,08826;7574,629;8427,693
129,5;19,15859;-0,009222264;7,535536;0,007535536;0;0;0;2,128732;2,106391;6915,698;7695,947
130;19,32516;-0,009315282;6,958404;0,006958404;0;0;0;2,14724;2,124511;6386,037;7107,817
130,5;19,49185;-0,009272074;7,394973;0,007394973;0;0;0;2,165761;2,142642;6786,696;7555,13
131;19,6586;-0,009480289;7,983313;0,007983313;0;0;0;2,184289;2,160775;7326,643;8157,692
131,5;19,82512;-0,009165818;7,863795;0,007863795;0;0;0;2,202791;2,17888;7216,956;8037,018
132;19,99187;-0,009316273;7,100093;0,007100093;0;0;0;2,221319;2,197007;6516,072;7257,808
132,5;20,1585;-0,009272754;8,222349;0,008222349;0;0;0;2,239834;2,215118;7546,017;8406,516
133;20,32514;-0,009304578;7,52609;0,00752609;0;0;0;2,258349;2,233226;6907,029;7696,056
133,5;20,49177;-0,009230435;6,839277;0,006839277;0;0;0;2,276863;2,25133;6276,709;6994,998
134;20,65846;-0,009406013;7,471372;0,007471372;0;0;0;2,295385;2,269437;6856,812;7642,869
134,5;20,82516;-0,009207982;7,805602;0,007805602;0;0;0;2,313907;2,287542;7163,549;7986,217
135;20,99179;-0,009347918;7,123438;0,007123438;0;0;0;2,332421;2,305636;6537,497;7289,587
135,5;21,15854;-0,009235544;7,374564;0,007374564;0;0;0;2,350949;2,32374;6767,966;7547,936
136;21,32524;-0,009255341;7,895314;0,007895314;0;0;0;2,369471;2,341835;7245,882;8082,391
136,5;21,49181;-0,009308884;7,579291;0,007579291;0;0;0;2,387979;2,359913;6955,853;7760,283
136,606;21,52721;-0,007932044;7,624025;0,007624025;0;0;0;2,391912;2,363754;6996,908;7806,385