File: scratch/KRAMS/src/apps/scratch/axel/tensile_tests/pullout151.raw
"Prüfungstyp";"Manuell"
"Methodenname:";"C:\INSTRON\USER\TEMPLATE\Zugversuch Textilbeton.mtM"
"Name:";"Zugversuche Carbon"
"Prüfer";""
"Firma:";""
"Abteilung:";""
"Prüfdatum:";"01.01.97"
"Temperatur:";""
"Feuchtigkeit:";""
"Anmerkung 1:";""
"Anmerkung 2:";""
"Anmerkung 3:";""
"Geometrie:";"Rectangular"
"Probe";1
"Probenname:";"V19-Z-3-1"
"Breite:";100;"mm"
"Dicke:";10;"mm"
"Länge:";900;"mm"
"Durchmesser:";1.000000;"mm"
"Innendurchmesser:";0.500000;"mm"
"Außendurchm.:";1.000000;"mm"
"Wandstärke:";0.500000;"mm"
"Querschnitt:";1000;"mm*mm"
"Lineare Dichte:";1.000000;"den"
"Schlittengewicht:";9.806650;"N"
"Lade-Spannweite:";0.000000;"mm"
"Unterstütz.-Spannweite:";1.000000;"mm"
"Spannweitenverhältnis:";"2"
"Vorrichtungstyp:";"3-point"
"Kommentar:";""
"Eingefügt"
"Endbreite:";100;"mm"
"Enddicke:";10;"mm"
"Endlänge:";900;"mm"
"Enddurchmesser:";1.000000;"mm"
"Endinnendurchmesser:";0.500000;"mm"
"Endaußendurchmesser:";1.000000;"mm"
"Endwandstärke:";0.500000;"mm"
"Endquerschnitt:";1000;"mm*mm"
"Lineare Enddichte:";1.000000;"den"
"Zeit sec";"Verformung mm";"Dehnung 1 %";"Kraft N";"Spannung MPa";"Anz. der Zykl. ";"Zyklenzahl gesamt ";"Wiederholungswert ";"Dehnung [Trav.] %";"Tatsächliche dehnung %";"Zähigkeit gf/tex";"Tatsächliche spannung Pa"
0;0;-0,007846539;-13,11626;-0,01311626;0;0;0;0;0;-12037,37;-13116,26
1,5;0,004962528;-0,008520994;-9,733384;-0,009733384;0;0;0;0,000551392;0,0005513904;-8932,761;-9733,438
3;0,009925055;-0,008510977;-5,935281;-0,005935282;0;0;0;0,001102784;0,001102778;-5447,072;-5935,347
4,5;0,01506695;-0,008629063;-3,426771;-0,003426771;0;0;0;0,001674106;0,001674092;-3144,901;-3426,829
6;0,0199099;-0,008589752;-1,376169;-0,001376169;0;0;0;0,002212211;0,002212187;-1262,971;-1376,199
7,5;0,0250518;-0,008643866;0,7547973;0,0007547973;0;0;0;0,002783533;0,002783494;692,7111;754,8183
9;0,02995454;-0,008596707;0,8586538;0,0008586537;0;0;0;0,003328282;0,003328226;788,0248;858,6823
10,5;0,03503664;-0,008753798;2,165326;0,002165326;0;0;0;0,00389296;0,003892884;1987,217;2165,411
12;0,03999917;-0,008651905;3,305643;0,003305643;0;0;0;0,004444352;0,004444254;3033,736;3305,79
13,5;0,04508128;-0,008819572;4,059899;0,004059899;0;0;0;0,005009031;0,005008905;3725,95;4060,103
15;0,05004381;-0,008737067;4,948307;0,004948307;0;0;0;0,005560423;0,005560268;4541,282;4948,583
16,5;0,05500633;-0,008902973;5,780236;0,005780236;0;0;0;0,006111815;0,006111628;5304,78;5780,589
18;0,06002865;-0,008846886;6,569437;0,006569437;0;0;0;0,00666985;0,006669627;6029,065;6569,876
19,5;0,06499118;-0,008980847;7,162378;0,007162379;0;0;0;0,007221242;0,007220981;6573,234;7162,896
21;0,07007328;-0,008959462;7,874201;0,007874201;0;0;0;0,007785921;0,007785617;7226,506;7874,814
22,5;0,07491623;-0,009163864;7,706719;0,007706719;0;0;0;0,008324025;0,008323678;7072,8;7707,361
24;0,08005813;-0,009064391;9,641523;0,009641523;0;0;0;0,008895348;0,008894952;8848,455;9642,38
25,5;0,08496087;-0,009218177;9,388195;0,009388195;0;0;0;0,009440097;0,009439651;8615,965;9389,081
27;0,09004297;-0,00911014;9,991267;0,009991267;0;0;0;0,01000477;0,01000427;9169,432;9992,267
28,5;0,09494571;-0,009315644;9,727809;0,009727809;0;0;0;0,01054952;0,01054897;8927,645;9728,835
30;0,1000876;-0,009158055;10,73994;0,01073994;0;0;0;0,01112085;0,01112023;9856,525;10741,14
31,5;0,1048708;-0,009309964;10,21924;0,01021924;0;0;0;0,01165231;0,01165163;9378,654;10220,43
33;0,1101322;-0,009202012;11,85217;0,01185217;0;0;0;0,01223692;0,01223617;10877,26;11853,62
34,5;0,1149154;-0,009355446;11,68385;0,01168385;0;0;0;0,01276838;0,01276756;10722,79;11685,35
36;0,1200573;-0,009146354;13,01975;0,01301975;0;0;0;0,0133397;0,01333881;11948,8;13021,48
37,5;0,1249002;-0,009255216;11,79221;0,01179221;0;0;0;0,0138778;0,01387684;10822,24;11793,85
39;0,1300421;-0,009032463;12,28761;0,01228761;0;0;0;0,01444913;0,01444808;11276,89;12289,39
40,5;0,1348851;-0,009151513;12,87678;0,01287678;0;0;0;0,01498723;0,01498611;11817,6;12878,71
42;0,140027;-0,009021996;13,43409;0,01343409;0;0;0;0,01555855;0,01555734;12329,07;13436,18
43,5;0,1449297;-0,009144995;13,12204;0,01312204;0;0;0;0,0161033;0,01610201;12042,68;13124,15
45;0,1500118;-0,009108774;14,27581;0,01427581;0;0;0;0,01666798;0,01666659;13101,55;14278,19
46,5;0,1549744;-0,009169711;14,66549;0,01466549;0;0;0;0,01721937;0,01721789;13459,18;14668,02
48;0,1599967;-0,009114275;15,52106;0,01552106;0;0;0;0,01777741;0,01777583;14244,37;15523,82
49,5;0,165019;-0,009184919;15,32397;0,01532397;0;0;0;0,01833544;0,01833376;14063,49;15326,78
51;0,1699815;-0,00921925;15,81746;0,01581746;0;0;0;0,01888683;0,01888505;14516,39;15820,44
52,5;0,1750636;-0,009381252;15,99424;0,01599424;0;0;0;0,01945151;0,01944962;14678,63;15997,35
54;0,1800262;-0,009303447;16,69735;0,01669735;0;0;0;0,02000291;0,02000091;15323,9;16700,69
55,5;0,1850485;-0,009339249;16,61664;0,01661664;0;0;0;0,02056094;0,02055883;15249,83;16620,06
57;0,1899512;-0,009296059;16,67978;0,01667978;0;0;0;0,02110569;0,02110346;15307,78;16683,3
58,5;0,1950931;-0,009259775;17,99795;0,01799795;0;0;0;0,02167701;0,02167466;16517,53;18001,86
60;0,1999361;-0,009212507;17,36865;0,01736865;0;0;0;0,02221512;0,02221265;15939,98;17372,51
61,5;0,2050779;-0,009092957;18,58933;0,01858933;0;0;0;0,02278644;0,02278384;17060,26;18593,56
63;0,2099209;-0,009050967;18,50808;0,01850808;0;0;0;0,02332455;0,02332182;16985,69;18512,4
64,5;0,2150628;-0,008995929;19,69274;0,01969274;0;0;0;0,02389587;0,02389301;18072,91;19697,45
66;0,2199058;-0,009073632;19,08483;0,01908483;0;0;0;0,02443397;0,02443099;17514,99;19089,49
67,5;0,2251074;-0,009137032;19,58835;0,01958835;0;0;0;0,02501194;0,02500881;17977,1;19593,25
69;0,2298906;-0,009233116;19,77546;0,01977546;0;0;0;0,0255434;0,02554014;18148,82;19780,51
70,5;0,2351521;-0,009172147;20,57704;0,02057704;0;0;0;0,02612801;0,02612459;18884,47;20582,42
72;0,2399352;-0,009241863;20,2851;0,0202851;0;0;0;0,02665947;0,02665592;18616,54;20290,5
73,5;0,2451369;-0,009213732;21,13533;0,02113533;0;0;0;0,02723743;0,02723373;19396,83;21141,09
75;0,2499201;-0,00907941;20,82528;0,02082528;0;0;0;0,0277689;0,02776504;19112,29;20831,06
76,5;0,255062;-0,009249444;20,66264;0,02066264;0;0;0;0,02834022;0,0283362;18963,03;20668,5
78;0,2599049;-0,008339001;20,82185;0,02082185;0;0;0;0,02887833;0,02887416;19109,14;20827,86
79,5;0,2650468;-0,009211249;21,97039;0,02197039;0;0;0;0,02944965;0,02944531;20163,21;21976,86
81;0,2699496;-0,009068233;20,51973;0,02051973;0;0;0;0,02999439;0,0299899;18831,87;20525,88
82,5;0,2750317;-0,009135303;21,49594;0,02149594;0;0;0;0,03055907;0,0305544;19727,78;21502,51
84;0,2799942;-0,009003373;20,85156;0,02085156;0;0;0;0,03111046;0,03110562;19136,4;20858,05
85,5;0,2850763;-0,009100078;21,5048;0,0215048;0;0;0;0,03167514;0,03167013;19735,91;21511,61
87;0,2900388;-0,008925544;22,43397;0,02243397;0;0;0;0,03222654;0,03222135;20588,66;22441,2
88,5;0,2950013;-0,009049294;21,79278;0,02179278;0;0;0;0,03277793;0,03277256;20000,2;21799,92
90;0,3000237;-0,008935467;22,02139;0,02202139;0;0;0;0,03333597;0,03333041;20210,01;22028,73
91,5;0,3049862;-0,009062868;21,9976;0,0219976;0;0;0;0,03388735;0,03388161;20188,18;22005,06
93;0,3100683;-0,008930216;21,56666;0,02156666;0;0;0;0,03445203;0,0344461;19792,69;21574,09
94,5;0,314971;-0,009056285;21,37427;0,02137427;0;0;0;0,03499678;0,03499066;19616,12;21381,75
96;0,3200531;-0,008974736;21,53226;0,02153225;0;0;0;0,03556146;0,03555514;19761,11;21539,91
97,5;0,3249559;-0,009097737;21,52545;0,02152545;0;0;0;0,03610621;0,03609969;19754,87;21533,22
99;0,3300977;-0,009032774;21,64306;0,02164306;0;0;0;0,03667753;0,0366708;19862,8;21651
100,5;0,3349407;-0,009124481;20,98434;0,02098434;0;0;0;0,03721564;0,03720871;19258,27;20992,15
102;0,3400826;-0,009098942;22,56759;0,02256759;0;0;0;0,03778696;0,03777982;20711,28;22576,12
103,5;0,3449256;-0,009205552;21,12955;0,02112955;0;0;0;0,03832507;0,03831772;19391,53;21137,65
105;0,3501273;-0,009124507;21,24168;0,02124168;0;0;0;0,03890303;0,03889546;19494,44;21249,95
106,5;0,3549104;-0,00928173;21,41249;0,02141249;0;0;0;0,03943449;0,03942672;19651,2;21420,94
108;0,3601121;-0,009155403;22,10875;0,02210875;0;0;0;0,04001246;0,04000445;20290,19;22117,6
109,5;0,3648953;-0,009298845;21,06686;0,02106686;0;0;0;0,04054392;0,0405357;19334;21075,4
111;0,3700969;-0,009167197;21,92174;0,02192174;0;0;0;0,04112188;0,04111343;20118,56;21930,76
112,5;0,3748801;-0,009270754;21,90843;0,02190843;0;0;0;0,04165335;0,04164467;20106,34;21917,55
114;0,3800818;-0,009174133;21,48855;0,02148855;0;0;0;0,04223131;0,04222239;19721;21497,62
115,5;0,3849248;-0,009256516;20,74021;0,02074021;0;0;0;0,04276942;0,04276027;19034,22;20749,09
117;0,3900068;-0,009145764;20,83208;0,02083208;0;0;0;0,04333409;0,04332471;19118,53;20841,11
118,5;0,3949694;-0,009212806;20,61947;0,02061947;0;0;0;0,04388549;0,04387586;18923,41;20628,52
120;0,4000515;-0,009041072;21,29106;0,02129106;0;0;0;0,04445017;0,04444029;19539,76;21300,53
121,5;0,405014;-0,009066869;20,94137;0,02094137;0;0;0;0,04500156;0,04499144;19218,83;20950,79
123;0,4100364;-0,008250787;20,61879;0,02061879;0;0;0;0,0455596;0,04554922;18922,78;20628,18
124,5;0,4149989;-0,009006615;21,67213;0,02167213;0;0;0;0,04611098;0,04610036;19889,48;21682,13
126;0,4200212;-0,008866652;21,63596;0,02163596;0;0;0;0,04666902;0,04665813;19856,29;21646,06
127,5;0,4250435;-0,008958691;21,66773;0,02166773;0;0;0;0,04722705;0,04721591;19885,44;21677,96
129;0,430006;-0,008763385;20,89003;0,02089003;0;0;0;0,04777845;0,04776704;19171,71;20900,01
130,5;0,4350283;-0,008903841;21,91504;0,02191504;0;0;0;0,04833648;0,0483248;20112,41;21925,63
132;0,4399311;-0,008718594;21,29209;0,02129209;0;0;0;0,04888123;0,04886929;19540,7;21302,5
133,5;0,445073;-0,008755983;21,85351;0,02185351;0;0;0;0,04945255;0,04944033;20055,95;21864,32
135;0,4499159;-0,008601633;21,22088;0,02122088;0;0;0;0,04999066;0,04997817;19475,35;21231,49
136,5;0,4550578;-0,008688493;21,67453;0,02167453;0;0;0;0,05056198;0,0505492;19891,68;21685,49
138;0,4599008;-0,008509196;21,403;0,021403;0;0;0;0,05110009;0,05108704;19642,48;21413,93
139,5;0,4650427;-0,008644956;21,50118;0,02150118;0;0;0;0,05167141;0,05165806;19732,59;21512,29
141;0,4699454;-0,008454834;20,86198;0,02086198;0;0;0;0,05221616;0,05220253;19145,97;20872,88
142,5;0,4750873;-0,008647421;21,95566;0,02195566;0;0;0;0,05278748;0,05277355;20149,69;21967,25
144;0,4798705;-0,008430354;21,24863;0,02124863;0;0;0;0,05331894;0,05330473;19500,82;21259,96
145,5;0,4850722;-0,008672234;22,68143;0,02268143;0;0;0;0,05389691;0,05388239;20815,76;22693,65
147;0,4899151;-0,00844175;21,7059;0,0217059;0;0;0;0,05443501;0,0544202;19920,47;21717,72
148,5;0,495057;-0,008641261;22,07968;0,02207968;0;0;0;0,05500633;0,05499121;20263,51;22091,82
150;0,4998999;-0,008431086;22,0787;0,0220787;0;0;0;0,05554444;0,05552901;20262,61;22090,96
151,5;0,504982;-0,008663692;22,37759;0,02237759;0;0;0;0,05610912;0,05609338;20536,92;22390,15
153;0,5099446;-0,0084535;21,99075;0,02199075;0;0;0;0,05666051;0,05664446;20181,89;22003,21
154,5;0,5149669;-0,008692957;23,22278;0,02322279;0;0;0;0,05721854;0,05720218;21312,58;23236,07
156;0,5199892;-0,008556506;21,77609;0,02177609;0;0;0;0,05777657;0,05775989;19984,89;21788,67
157,5;0,5250115;-0,008727431;23,09079;0,02309079;0;0;0;0,05833461;0,0583176;21191,45;23104,26
159;0,5300338;-0,008631047;22,14898;0,02214898;0;0;0;0,05889265;0,05887531;20327,11;22162,03
160,5;0,5349366;-0,008769733;22,17908;0,02217908;0;0;0;0,05943739;0,05941974;20354,73;22192,26
162;0,5400187;-0,008701695;22,41919;0,02241919;0;0;0;0,06000208;0,05998408;20575,09;22432,65
163,5;0,5449812;-0,00871423;23,05912;0,02305912;0;0;0;0,06055347;0,06053514;21162,38;23073,08
165;0,5500035;-0,008627187;22,5901;0,0225901;0;0;0;0,0611115;0,06109284;20731,94;22603,91
166,5;0,5549063;-0,008725776;22,03054;0,02203054;0;0;0;0,06165626;0,06163725;20218,41;22044,12
168;0,5599883;-0,008555115;22,46217;0,02246217;0;0;0;0,06222093;0,06220158;20614,53;22476,14
169,5;0,5648911;-0,008697416;22,53519;0,02253519;0;0;0;0,06276568;0,06274599;20681,55;22549,33
171;0,570033;-0,008495857;22,60978;0,02260978;0;0;0;0,063337;0,06331695;20750;22624,1
172,5;0,5749358;-0,008675963;22,48062;0,02248062;0;0;0;0,06388175;0,06386136;20631,46;22494,98
174;0,5800179;-0,008532932;22,9882;0,0229882;0;0;0;0,06444643;0,06442567;21097,3;23003,02
175,5;0,5848608;-0,008657454;22,72636;0,02272636;0;0;0;0,06498453;0,06496343;20856,99;22741,13
177;0,5900625;-0,008544439;23,31896;0,02331896;0;0;0;0,06556249;0,06554101;21400,85;23334,25
178,5;0,5948456;-0,008730288;22,15789;0,02215789;0;0;0;0,06609395;0,06607212;20335,28;22172,53
180;0,6001071;-0,008613529;23,44283;0,02344283;0;0;0;0,06667857;0,06665635;21514,53;23458,46
181,5;0,6048305;-0,008776177;23,0901;0,0230901;0;0;0;0,06720339;0,06718081;21190,82;23105,62
183;0,6100322;-0,008602368;23,07596;0,02307596;0;0;0;0,06778135;0,06775839;21177,83;23091,6
184,5;0,6148751;-0,008771882;22,25274;0,02225274;0;0;0;0,06831945;0,06829612;20422,33;22267,94
186;0,620017;-0,008604117;23,44024;0,02344024;0;0;0;0,06889077;0,06886706;21512,15;23456,39
187,5;0,62486;-0,008665844;23,10302;0,02310302;0;0;0;0,06942889;0,0694048;21202,67;23119,06
189;0,6300019;-0,00848658;23,12921;0,02312921;0;0;0;0,07000021;0,06997572;21226,71;23145,4
190,5;0,6349644;-0,008646267;22,87133;0,02287133;0;0;0;0,0705516;0,07052672;20990,04;22887,46
192;0,6399867;-0,008526327;23,22347;0,02322347;0;0;0;0,07110964;0,07108437;21313,21;23239,98
193,5;0,6552928;-0,008661095;24,53626;0,02453626;0;0;0;0,07281031;0,07278382;22518,02;24554,13
195;0,6798065;-0,008543856;22,93554;0,02293554;0;0;0;0,07553406;0,07550555;21048,97;22952,86
196,5;0,7050376;-0,008720098;24,74471;0,02474471;0;0;0;0,07833751;0,07830685;22709,32;24764,09
198;0,7300297;-0,008662974;24,45712;0,02445712;0;0;0;0,08111441;0,08108153;22445,39;24476,96
199,5;0,7549021;-0,008853575;23,61981;0,02361981;0;0;0;0,08387801;0,08384285;21676,95;23639,62
201;0,780193;-0,008773162;24,70844;0,02470844;0;0;0;0,08668812;0,08665056;22676,04;24729,86
202,5;0,8048263;-0,008974969;23,52305;0,02352305;0;0;0;0,08942515;0,08938519;21588,15;23544,08
204;0,8301173;-0,008867308;24,18059;0,02418059;0;0;0;0,09223525;0,09219275;22191,61;24202,9
205,5;0,8550495;-0,009020094;24,75729;0,02475729;0;0;0;0,0950055;0,09496039;22720,87;24780,81
207;0,8799219;-0,009035742;23,41136;0,02341136;0;0;0;0,0977691;0,09772134;21485,65;23434,25
208,5;0,9052727;-0,009150434;24,28842;0,02428842;0;0;0;0,1005859;0,1005353;22290,56;24312,85
210;0,9298462;-0,009157904;22,70424;0,02270424;0;0;0;0,1033162;0,1032629;20836,69;22727,69
211,5;0,9550175;-0,009197587;23,89771;0,02389771;0;0;0;0,1061131;0,1060568;21931,99;23923,06
213;0,9800693;-0,009140469;24,15049;0,02415049;0;0;0;0,1088966;0,1088373;22163,98;24176,79
214,5;1,004882;-0,009235136;23,38508;0,02338508;0;0;0;0,1116536;0,1115913;21461,53;23411,19
216;1,030292;-0,009153745;24,04742;0,02404742;0;0;0;0,1144769;0,1144115;22069,39;24074,95
217,5;1,054866;-0,009221918;23,58711;0,02358712;0;0;0;0,1172073;0,1171387;21646,95;23614,76
219;1,080097;-0,00916959;23,51316;0,02351316;0;0;0;0,1200108;0,1199388;21579,08;23541,38
220,5;1,105089;-0,009232067;22,74491;0,02274491;0;0;0;0,1227877;0,1227124;20874,02;22772,84
222;1,129842;-0,009238468;22,11614;0,02211614;0;0;0;0,125538;0,1254593;20296,97;22143,91
223,5;1,155193;-0,009218736;22,78162;0,02278162;0;0;0;0,1283547;0,1282724;20907,71;22810,86
225;1,179886;-0,009208627;21,55188;0,02155188;0;0;0;0,1310984;0,1310126;19779,12;21580,14
226,5;1,204938;-0,009182856;20,44812;0,02044812;0;0;0;0,133882;0,1337924;18766,16;20475,5
228;1,230109;-0,009183572;21,33252;0,02133252;0;0;0;0,1366788;0,1365855;19577,8;21361,68
229,5;1,254742;-0,009225519;20,89282;0,02089282;0;0;0;0,1394158;0,1393187;19174,27;20921,95
231;1,280153;-0,00915952;21,77986;0,02177986;0;0;0;0,1422392;0,1421381;19988,35;21810,84
232,5;1,304846;-0,009198005;20,82836;0,02082836;0;0;0;0,1449829;0,1448779;19115,12;20858,56
234;1,329898;-0,0092355;19,92033;0,01992033;0;0;0;0,1477664;0,1476573;18281,77;19949,76
235,5;1,355189;-0,009193114;20,21442;0,02021442;0;0;0;0,1505765;0,1504633;18551,68;20244,86
237;1,379762;-0,009168644;20,73659;0,02073659;0;0;0;0,1533069;0,1531895;19030,9;20768,38
238,5;1,405173;-0,00912032;21,65662;0,02165662;0;0;0;0,1561303;0,1560085;19875,24;21690,43
240;1,429985;-0,009091487;21,08732;0,02108731;0;0;0;0,1588873;0,1587612;19352,77;21120,82
241,5;1,454977;-0,009136422;20,42336;0,02042336;0;0;0;0,1616641;0,1615336;18743,43;20456,38
243;1,480268;-0,008996328;21,20581;0,02120581;0;0;0;0,1644742;0,1643391;19461,51;21240,68
244,5;1,504842;-0,009065437;19,40897;0,01940897;0;0;0;0,1672046;0,167065;17812,48;19441,42
246;1,530192;-0,008884853;20,08463;0,02008463;0;0;0;0,1700214;0,169877;18432,56;20118,77
247,5;1,554945;-0,008922174;20,17121;0,02017121;0;0;0;0,1727717;0,1726226;18512,02;20206,06
249;1,579937;-0,008830372;19,94994;0,01994994;0;0;0;0,1755486;0,1753947;18308,95;19984,96
250,5;1,605228;-0,008897781;20,56715;0,02056715;0;0;0;0,1783587;0,1781998;18875,39;20603,84
252;1,629921;-0,008815208;18,18398;0,01818398;0;0;0;0,1811024;0,1809386;16688,25;18216,92
253,5;1,655153;-0,008896989;19,9817;0,0199817;0;0;0;0,1839058;0,1837369;18338,1;20018,45
255;1,680025;-0,008772165;18,48161;0,01848161;0;0;0;0,1866694;0,1864954;16961,39;18516,11
256,5;1,704957;-0,008876068;17,38294;0,01738294;0;0;0;0,1894397;0,1892605;15953,1;17415,87
258;1,730248;-0,008742345;17,98004;0,01798004;0;0;0;0,1922498;0,1920652;16501,09;18014,61
259,5;1,754822;-0,00884358;17,67111;0,01767111;0;0;0;0,1949802;0,1947903;16217,57;17705,57
261;1,780113;-0,008677182;17,90609;0,01790609;0;0;0;0,1977903;0,1975949;16433,21;17941,5
262,5;1,805045;-0,008808923;17,56001;0,01756001;0;0;0;0,2005605;0,2003597;16115,61;17595,23
264;1,829917;-0,008691178;17,57763;0,01757763;0;0;0;0,2033241;0,2031177;16131,78;17613,37
265,5;1,855208;-0,008743771;16,51969;0,01651969;0;0;0;0,2061342;0,2059221;15160,85;16553,74
267;1,879841;-0,008624785;15,32289;0,01532289;0;0;0;0,2088713;0,2086534;14062,5;15354,9
268,5;1,905132;-0,008649112;16,18419;0,01618419;0;0;0;0,2116814;0,2114576;14852,95;16218,45
270;1,930005;-0,008454091;15,77277;0,01577277;0;0;0;0,214445;0,2142154;14475,38;15806,6
271,5;1,954937;-0,008528393;15,31061;0,01531061;0;0;0;0,2172152;0,2169796;14051,23;15343,86
273;1,980288;-0,008356044;15,68301;0,01568301;0;0;0;0,220032;0,2197903;14393;15717,52
274,5;2,004861;-0,008455397;14,96561;0,01496561;0;0;0;0,2227623;0,2225146;13734,61;14998,95
276;2,030092;-0,00830752;15,61195;0,01561195;0;0;0;0,2255658;0,2253118;14327,78;15647,16
277,5;2,055084;-0,008451104;15,56663;0,01556663;0;0;0;0,2283427;0,2280824;14286,19;15602,17
279;2,079897;-0,008396849;15,11807;0,01511807;0;0;0;0,2310997;0,230833;13874,52;15153
280,5;2,105248;-0,008521632;16,44441;0,01644441;0;0;0;0,2339164;0,2336433;15091,77;16482,88
282;2,129881;-0,008491781;14,51837;0,01451837;0;0;0;0,2366534;0,2363739;13324,16;14552,73
283,5;2,155052;-0,008635707;15,59428;0,01559428;0;0;0;0,2394502;0,239164;14311,57;15631,62
285;2,180044;-0,008609085;15,32358;0,01532358;0;0;0;0,2422272;0,2419343;14063,13;15360,69
286,5;2,204857;-0,008806562;14,332;0,014332;0;0;0;0,2449841;0,2446845;13153,11;14367,11
288;2,230268;-0,008736778;15,46404;0,01546404;0;0;0;0,2478075;0,247501;14192,04;15502,36
289,5;2,254841;-0,00894221;14,72633;0,01472633;0;0;0;0,2505379;0,2502246;13515,01;14763,22
291;2,280013;-0,008868492;14,59125;0,01459125;0;0;0;0,2533347;0,2530144;13391,04;14628,21
292,5;2,305124;-0,009038565;15,47613;0,01547613;0;0;0;0,2561249;0,2557974;14203,13;15515,77
294;2,329817;-0,008938962;13,8132;0,01381321;0;0;0;0,2588686;0,2585341;12676,99;13848,96
295,5;2,355168;-0,009069527;15,25457;0,01525457;0;0;0;0,2616853;0,2613435;13999,8;15294,49
297;2,379861;-0,008976808;14,36885;0,01436885;0;0;0;0,264429;0,26408;13186,93;14406,85
298,5;2,404913;-0,009119182;14,20851;0,01420852;0;0;0;0,2672125;0,2668561;13039,79;14246,48
300;2,430144;-0,008980046;15,44422;0,01544422;0;0;0;0,270016;0,2696521;14173,85;15485,92
301,5;2,454777;-0,009161727;14,5125;0,0145125;0;0;0;0,272753;0,2723817;13318,77;14552,08
303;2,480128;-0,008966539;14,83474;0,01483474;0;0;0;0,2755698;0,2751908;13614,5;14875,62
304,5;2,504941;-0,009092763;15,02791;0,01502791;0;0;0;0,2783267;0,2779401;13791,79;15069,74
306;2,529933;-0,009013269;13,86562;0,01386562;0;0;0;0,2811036;0,2807093;12725,1;13904,6
307,5;2,555223;-0,009154279;15,52537;0,01552537;0;0;0;0,2839137;0,2835114;14248,32;15569,45
309;2,579857;-0,009030477;14,32519;0,01432519;0;0;0;0,2866507;0,2862407;13146,87;14366,26
310,5;2,605207;-0,009267674;15,41094;0,01541094;0;0;0;0,2894675;0,2890493;14143,31;15455,55
312;2,6299;-0,009108466;14,08572;0,01408572;0;0;0;0,2922111;0,291785;12927,09;14126,88
313,5;2,654952;-0,00937573;13,4707;0,0134707;0;0;0;0,2949947;0,2945605;12362,67;13510,44
315;2,680243;-0,009090219;14,4777;0,0144777;0;0;0;0,2978048;0,2973622;13286,83;14520,81
316,5;2,704817;-0,009382324;14,27801;0,01427801;0;0;0;0,3005352;0,3000845;13103,57;14320,92
318;2,730108;-0,009134349;14,36058;0,01436058;0;0;0;0,3033453;0,3028862;13179,34;14404,14
319,5;2,75498;-0,009295177;14,81457;0,01481457;0;0;0;0,3061089;0,3056413;13595,99;14859,92
321;2,779912;-0,008969441;13,86234;0,01386234;0;0;0;0,3088792;0,3084031;12722,09;13905,16
322,5;2,805203;-0,009045512;14,9776;0,0149776;0;0;0;0,3116893;0,3112045;13745,61;15024,28
324;2,829837;-0,008918472;13,99003;0,01399003;0;0;0;0,3144263;0,313933;12839,28;14034,02
325,5;2,855187;-0,008911141;14,06081;0,01406081;0;0;0;0,317243;0,3167409;12904,23;14105,41
327;2,88;-0,008695005;14,55077;0,01455077;0;0;0;0,32;0,3194891;13353,89;14597,33
328,5;2,904872;-0,008787212;13,79754;0,01379754;0;0;0;0,3227636;0,3222438;12662,62;13842,08
330;2,930223;-0,008655645;15,31981;0,01531981;0;0;0;0,3255804;0,3250515;14059,67;15369,69
331,5;2,954856;-0,008735878;13,67964;0,01367964;0;0;0;0,3283174;0,3277796;12554,42;13724,55
333;2,980087;-0,008423192;14,03859;0,01403859;0;0;0;0,3311208;0,3305738;12883,84;14085,07
334,5;3,00508;-0,008580466;14,61156;0,01461156;0;0;0;0,3338977;0,3333415;13409,68;14660,35
336;3,029892;-0,008380671;13,91594;0,01391594;0;0;0;0,3366547;0,3360893;12771,27;13962,78
337,5;3,055303;-0,008456692;15,04563;0,01504563;0;0;0;0,3394781;0,3389032;13808,05;15096,71
339;3,079876;-0,008393095;15,08239;0,01508239;0;0;0;0,3422084;0,3416243;13841,78;15134
340,5;3,105107;-0,008506255;14,44329;0,01444329;0;0;0;0,3450119;0,3444181;13255,25;14493,12
342;3,130099;-0,008458965;14,71165;0,01471165;0;0;0;0,3477888;0,3471854;13501,53;14762,81
343,5;3,154972;-0,008902438;13,79872;0,01379872;0;0;0;0,3505524;0,3499394;12663,7;13847,09
345;3,180263;-0,008804331;14,04749;0,01404749;0;0;0;0,3533625;0,3527397;12892,01;14097,13
346,5;3,204956;-0,008922688;13,58219;0,01358219;0;0;0;0,3561062;0,3554736;12464,99;13630,56
348;3,230127;-0,008897637;13,6953;0,0136953;0;0;0;0,358903;0,3582605;12568,79;13744,45
349,5;3,255059;-0,009198652;14,37453;0,01437453;0;0;0;0,3616733;0,3610208;13192,15;14426,52
351;3,279872;-0,00906716;13,13995;0,01313995;0;0;0;0,3644302;0,3637678;12059,12;13187,83
352,5;3,305283;-0,00921985;14,31364;0,01431364;0;0;0;0,3672536;0,3665809;13136,27;14366,21
354;3,329856;-0,009043767;13,22051;0,01322051;0;0;0;0,369984;0,3693013;12133,05;13269,42
355,5;3,354968;-0,008969245;12,87492;0,01287492;0;0;0;0,3727742;0,3720811;11815,89;12922,92
357;3,380139;-0,008844804;11,48055;0,01148055;0;0;0;0,375571;0,3748675;10536,21;11523,66
358,5;3,404892;-0,009042308;12,20788;0,01220788;0;0;0;0,3783213;0,3776075;11203,72;12254,07
360;3,430183;-0,008893937;13,54177;0,01354177;0;0;0;0,3811314;0,380407;12427,88;13593,38
361,5;3,454876;-0,009201835;11,59463;0,01159463;0;0;0;0,3838751;0,3831402;10640,91;11639,14
363;3,479988;-0,009167796;12,58645;0,01258645;0;0;0;0,3866653;0,3859197;11551,15;12635,12
364,5;3,505159;-0,009027208;12,53198;0,01253198;0;0;0;0,3894621;0,3887057;11501,16;12580,79
366;3,529792;-0,008916983;11,99978;0,01199978;0;0;0;0,3921992;0,391432;11012,73;12046,84
367,5;3,555143;-0,0090923;12,47222;0,01247222;0;0;0;0,3950159;0,3942377;11446,31;12521,49
369;3,579896;-0,008890862;11,85902;0,01185902;0;0;0;0,3977662;0,3969772;10883,55;11906,19
370,5;3,604888;-0,009116232;11,93043;0,01193043;0;0;0;0,4005431;0,3997431;10949,08;11978,21
372;3,630179;-0,009025072;12,96292;0,01296292;0;0;0;0,4033532;0,4025419;11896,65;13015,21
373,5;3,654872;-0,009172955;12,30503;0,01230503;0;0;0;0,4060969;0,4052745;11292,88;12355
375;3,680223;-0,009085312;13,22795;0,01322795;0;0;0;0,4089136;0,4080798;12139,88;13282,04
376,5;3,704975;-0,009232776;12,87717;0,01287717;0;0;0;0,4116639;0,4108189;11817,96;12930,19
378;3,729968;-0,009168538;12,55063;0,01255063;0;0;0;0,4144408;0,4135844;11518,27;12602,64
379,5;3,755258;-0,009264267;13,24934;0,01324934;0;0;0;0,4172509;0,4163829;12159,51;13304,62
381;3,779832;-0,009389061;11,74361;0,01174361;0;0;0;0,4199813;0,4191019;10777,64;11792,93
382,5;3,805123;-0,009444824;12,74733;0,01274733;0;0;0;0,4227914;0,4219002;11698,79;12801,22
384;3,829995;-0,009203113;12,89024;0,01289024;0;0;0;0,4255551;0,4246521;11829,95;12945,1
385,5;3,854868;-0,009479814;12,37732;0,01237732;0;0;0;0,4283186;0,427404;11359,22;12430,34
387;3,880218;-0,009271798;13,40791;0,01340791;0;0;0;0,4311354;0,4302087;12305,04;13465,72
388,5;3,904792;-0,009322761;12,28776;0,01228776;0;0;0;0,4338658;0,4329273;11277,02;12341,07
390;3,930143;-0,009157252;13,18307;0,01318307;0;0;0;0,4366825;0,4357318;12098,69;13240,63
391,5;3,955015;-0,009317792;12,83347;0,01283347;0;0;0;0,4394461;0,4384834;11777,85;12889,87
393;3,979887;-0,009274747;13,02097;0,01302097;0;0;0;0,4422097;0,4412348;11949,92;13078,55
394,5;4,005238;-0,008925549;13,75834;0,01375834;0;0;0;0,4450264;0,4440391;12626,64;13819,57
396;4,029811;-0,00907633;13,22012;0,01322012;0;0;0;0,4477568;0,4467574;12132,69;13279,31
397,5;4,055043;-0,008999507;12,85814;0,01285814;0;0;0;0,4505603;0,4495483;11800,49;12916,07
399;4,080094;-0,009023062;13,42993;0,01342993;0;0;0;0,4533438;0,4523193;12325,25;13490,82
400,5;4,104848;-0,008932039;13,55405;0,01355405;0;0;0;0,4560942;0,4550572;12439,16;13615,87
402;4,130258;-0,008953789;13,91124;0,01391124;0;0;0;0,4589176;0,4578677;12766,96;13975,08
403,5;4,154832;-0,00884367;13,1537;0,0131537;0;0;0;0,461648;0,4605856;12071,74;13214,43
405;4,180063;-0,008882958;13,60172;0,01360172;0;0;0;0,4644514;0,4633762;12482,91;13664,9
406,5;4,205114;-0,008854437;14,06208;0,01406208;0;0;0;0,4672349;0,4661468;12905,4;14127,78
408;4,229927;-0,008829409;12,81355;0,01281355;0;0;0;0,4699919;0,4688909;11759,57;12873,77
409,5;4,255278;-0,008966746;14,88994;0,01488994;0;0;0;0,4728086;0,4716944;13665,17;14960,35
411;4,279971;-0,008819223;12,99958;0,01299958;0;0;0;0,4755523;0,4744251;11930,29;13061,4
412,5;4,305082;-0,008867792;13,81409;0,01381409;0;0;0;0,4783425;0,4772021;12677,8;13880,16
414;4,330134;-0,008747262;14,03966;0,01403966;0;0;0;0,481126;0,4799723;12884,82;14107,21
415,5;4,354887;-0,008903471;13,26387;0,01326387;0;0;0;0,4838763;0,4827094;12172,85;13328,05
417;4,380298;-0,008718913;14,84546;0,01484546;0;0;0;0,4866998;0,4855192;13624,34;14917,71
418,5;4,404871;-0,008841778;13,2672;0,0132672;0;0;0;0,4894302;0,4882363;12175,9;13332,13
420;4,430043;-0,008649891;13,36929;0,01336929;0;0;0;0,492227;0,4910195;12269,6;13435,1
421,5;4,455154;-0,008731883;14,15458;0,01415458;0;0;0;0,4950172;0,493796;12990,29;14224,65
423;4,479907;-0,008567576;14,22662;0,01422662;0;0;0;0,4977674;0,4965326;13056,41;14297,44
424,5;4,505138;-0,008618544;14,46909;0,01446909;0;0;0;0,5005709;0,4993222;13278,92;14541,51
426;4,529951;-0,008461051;13,36704;0,01336704;0;0;0;0,5033278;0,5020654;12267,53;13434,32
427,5;4,554943;-0,008566593;12,83132;0,01283132;0;0;0;0,5061047;0,5048283;11775,87;12896,26
429;4,580174;-0,008408095;13,93693;0,01393693;0;0;0;0,5089082;0,5076177;12790,54;14007,86
430,5;4,604807;-0,008526596;13,33435;0,01333435;0;0;0;0,5116452;0,5103408;12237,53;13402,57
432;4,630158;-0,008427851;14,29872;0,01429872;0;0;0;0,5144619;0,5131431;13122,57;14372,28
433,5;4,654911;-0,008533732;12,95906;0,01295906;0;0;0;0,5172123;0,5158794;11893,1;13026,08
435;4,679962;-0,008453044;12,81893;0,01281893;0;0;0;0,5199958;0,5186485;11764,51;12885,59
436,5;4,705194;-0,008596904;13,43028;0,01343028;0;0;0;0,5227993;0,5214375;12325,56;13500,49
438;4,729827;-0,008542774;13,09668;0,01309668;0;0;0;0,5255363;0,5241602;12019,41;13165,51
439,5;4,755178;-0,008695204;13,6539;0,0136539;0;0;0;0,5283531;0,5269622;12530,79;13726,04
441;4,77999;-0,008632285;13,93786;0,01393786;0;0;0;0,53111;0,5297046;12791,4;14011,89
442,5;4,804982;-0,008786801;12,75594;0,01275594;0;0;0;0,5338869;0,5324668;11706,7;12824,05
444;4,830273;-0,008732004;13,68786;0,01368786;0;0;0;0,536697;0,535262;12561,96;13761,32
445,5;4,854847;-0,008904554;12,96194;0,01296194;0;0;0;0,5394274;0,5379777;11895,75;13031,86
447;4,880138;-0,008767989;13,10598;0,01310598;0;0;0;0,5422375;0,5407727;12027,94;13177,05
448,5;4,90501;-0,008866725;13,47354;0,01347354;0;0;0;0,5450011;0,5435214;12365,27;13546,97
450;4,929943;-0,008764954;13,31179;0,01331179;0;0;0;0,5477714;0,5462766;12216,82;13384,7
451,5;4,955233;-0,008835406;14,03991;0,01403991;0;0;0;0,5505815;0,5490713;12885,05;14117,21
453;4,979807;-0,008773622;12,43067;0,01243067;0;0;0;0,5533119;0,5517867;11408,18;12499,45
454,5;5,005098;-0,008871646;12,79779;0,01279779;0;0;0;0,556122;0,5545813;11745,1;12868,96
456;5,03003;-0,008750797;12,90957;0,01290957;0;0;0;0,5588922;0,5573362;11847,69;12981,73
457,5;5,054842;-0,008961682;13,13217;0,01313217;0;0;0;0,5616491;0,5600778;12051,97;13205,92
459;5,080253;-0,008860888;13,60911;0,01360911;0;0;0;0,5644726;0,5628854;12489,69;13685,93
460,5;5,104827;-0,009024603;12,42421;0,01242421;0;0;0;0,567203;0,5656004;11402,25;12494,68
462;5,130058;-0,008831232;13,55396;0,01355395;0;0;0;0,5700064;0,568388;12439,07;13631,21
463,5;5,15511;-0,00889242;14,09609;0,01409609;0;0;0;0,57279;0,5711558;12936,61;14176,83
465;5,179862;-0,008758709;12,88554;0,01288554;0;0;0;0,5755402;0,5738903;11825,64;12959,7
466,5;5,205213;-0,008825001;14,21728;0,01421728;0;0;0;0,578357;0,576691;13047,83;14299,5
468;5,229847;-0,008714807;13,56433;0,01356433;0;0;0;0,5810941;0,5794122;12448,59;13643,15
469,5;5,255018;-0,008785875;13,26774;0,01326774;0;0;0;0,5838909;0,5821928;12176,39;13345,21
471;5,28007;-0,00857481;14,70709;0,01470709;0;0;0;0,5866745;0,5849602;13497,36;14793,38
472,5;5,304882;-0,008778826;13,49948;0,01349948;0;0;0;0,5894314;0,587701;12389,08;13579,05
474;5,330173;-0,008570946;14,91109;0,01491109;0;0;0;0,5922415;0,5904946;13684,57;14999,4
475,5;5,354927;-0,008752823;13,74689;0,01374689;0;0;0;0,5949919;0,5932288;12616,13;13828,68
477;5,379978;-0,00856187;12,94232;0,01294232;0;0;0;0,5977753;0,5959957;11877,74;13019,68
478,5;5,405209;-0,008760162;13,69452;0,01369452;0;0;0;0,6005788;0,5987825;12568,07;13776,76
480;5,429842;-0,008559668;13,32539;0,01332539;0;0;0;0,6033158;0,6015032;12229,31;13405,79
481,5;5,455253;-0,008805174;13,87683;0,01387683;0;0;0;0,6061392;0,6043096;12735,39;13960,94
483;5,479946;-0,008636341;12,96527;0,01296527;0;0;0;0,6088829;0,6070367;11898,81;13044,22
484,5;5,504998;-0,008866913;12,79211;0,01279211;0;0;0;0,6116664;0,6098033;11739,89;12870,36
486;5,530169;-0,008619009;12,88173;0,01288173;0;0;0;0,6144632;0,6125831;11822,13;12960,88
487,5;5,554862;-0,008935555;12,64367;0,01264367;0;0;0;0,6172069;0,61531;11603,66;12721,71
489;5,580153;-0,008653128;13,66868;0,01366868;0;0;0;0,620017;0,6181028;12544,35;13753,42
490,5;5,604966;-0,008914748;12,27493;0,01227493;0;0;0;0,622774;0,6208428;11265,25;12351,38
492;5,629958;-0,008771334;12,2902;0,0122902;0;0;0;0,6255509;0,6236024;11279,27;12367,09
493,5;5,655189;-0,008908858;13,51632;0,01351632;0;0;0;0,6283543;0,6263884;12404,53;13601,25
495;5,679822;-0,008811991;13,38197;0,01338197;0;0;0;0,6310914;0,6291083;12281,23;13466,42
496,5;5,705232;-0,008922572;13,25893;0,01325893;0;0;0;0,6339147;0,6319139;12168,31;13342,98
498;5,729926;-0,008764039;12,40042;0,01240042;0;0;0;0,6366584;0,6346403;11380,42;12479,37
499,5;5,754918;-0,008939928;12,27479;0,01227479;0;0;0;0,6394353;0,6373996;11265,12;12353,28
501;5,780209;-0,00880087;13,64151;0,01364151;0;0;0;0,6422454;0,6401918;12519,42;13729,12
502,5;5,804842;-0,008983564;12,07285;0,01207285;0;0;0;0,6449825;0,6429113;11079,79;12150,72
504;5,830133;-0,008829722;13,24782;0,01324782;0;0;0;0,6477926;0,6457034;12158,11;13333,64
505,5;5,855006;-0,008979134;12,45602;0,01245602;0;0;0;0,6505561;0,6484492;11431,45;12537,06
507;5,879938;-0,008911511;12,59042;0,01259042;0;0;0;0,6533264;0,6512015;11554,79;12672,68
508,5;5,905289;-0,009015389;13,62086;0,01362086;0;0;0;0,6561432;0,6539999;12500,47;13710,23
510;5,929802;-0,008964864;12,49948;0,01249948;0;0;0;0,6588669;0,6567059;11471,33;12581,84
511,5;5,955153;-0,00911105;13,25168;0,01325168;0;0;0;0,6616837;0,6595042;12161,66;13339,37
513;5,980025;-0,009033101;12,96287;0,01296287;0;0;0;0,6644472;0,6622495;11896,61;13049,01
514,5;6,004957;-0,009210883;12,89724;0,01289724;0;0;0;0,6672175;0,6650014;11836,37;12983,29
516;6,030248;-0,009108242;13,08866;0,01308866;0;0;0;0,6700276;0,6677929;12012,04;13176,35
517,5;6,054882;-0,009246487;12,37791;0,01237791;0;0;0;0,6727647;0,6705117;11359,76;12461,18
519;6,080113;-0,009140416;12,72491;0,01272491;0;0;0;0,675568;0,6732963;11678,22;12810,88
520,5;6,105045;-0,009307013;12,69173;0,01269173;0;0;0;0,6783383;0,676048;11647,77;12777,82
522;6,129858;-0,009201273;11,88349;0,01188349;0;0;0;0,6810954;0,6787864;10906,01;11964,43
523,5;6,155209;-0,009307572;13,44794;0,01344794;0;0;0;0,6839121;0,681584;12341,78;13539,92
525;6,179842;-0,009203487;11,85447;0,01185447;0;0;0;0,6866491;0,6843024;10879,37;11935,87
526,5;6,205013;-0,009318047;12,42352;0,01242352;0;0;0;0,6894459;0,6870801;11401,62;12509,18
528;6,230125;-0,009151314;13,11949;0,01311949;0;0;0;0,6922361;0,6898511;12040,34;13210,31
529,5;6,254878;-0,009298577;11,7999;0,0117999;0;0;0;0,6949865;0,6925826;10829,29;11881,9
531;6,280228;-0,009144301;13,65977;0,01365977;0;0;0;0,6978031;0,6953798;12536,18;13755,09
532,5;6,304802;-0,0092678;11,90258;0,01190258;0;0;0;0,7005335;0,6980912;10923,53;11985,96
534;6,330033;-0,009148201;12,27195;0,01227195;0;0;0;0,703337;0,7008751;11262,51;12358,26
535,5;6,355145;-0,009246586;13,5984;0,0135984;0;0;0;0,7061272;0,7036458;12479,85;13694,42
537;6,379837;-0,009227501;12,58376;0,01258376;0;0;0;0,7088708;0,7063701;11548,68;12672,97
538,5;6,405188;-0,009310435;13,43835;0,01343835;0;0;0;0,7116876;0,7091671;12332,97;13533,99
540;6,429882;-0,009241936;11,92069;0,01192069;0;0;0;0,7144313;0,7118913;10940,15;12005,85
541,5;6,454993;-0,009347006;11,82119;0,01182119;0;0;0;0,7172214;0,7146616;10848,83;11905,97
543;6,480104;-0,009196556;13,79094;0,01379094;0;0;0;0,7200116;0,7174319;12656,56;13890,23
544,5;6,504858;-0,009236045;12,26994;0,01226994;0;0;0;0,722762;0,7201626;11260,67;12358,62
546;6,530208;-0,00908529;12,91863;0,01291863;0;0;0;0,7255787;0,722959;11856;13012,36
547,5;6,554901;-0,009147089;12,13755;0,01213755;0;0;0;0,7283224;0,7256829;11139,17;12225,95
549;6,580013;-0,009115249;12,09522;0,01209522;0;0;0;0,7311125;0,7284529;11100,32;12183,65
550,5;6,605184;-0,009104137;12,4223;0,0124223;0;0;0;0,7339094;0,7312294;11400,5;12513,47
552;6,629758;-0,009056574;12,06228;0,01206228;0;0;0;0,7366398;0,7339398;11070,09;12151,13
553,5;6,655169;-0,009105717;12,78164;0,01278164;0;0;0;0,7394632;0,7367426;11730,28;12876,15
555;6,679921;-0,009058617;11,45676;0,01145676;0;0;0;0,7422134;0,7394726;10514,38;11541,79
556,5;6,704913;-0,009066059;11,76441;0,01176441;0;0;0;0,7449903;0,742229;10796,73;11852,06
558;6,730204;-0,009014446;12,46503;0,01246503;0;0;0;0,7478005;0,7450183;11439,71;12558,24
559,5;6,754778;-0,009042146;11,81913;0,01181913;0;0;0;0,7505308;0,7477284;10846,94;11907,84
561;6,780128;-0,009027507;12,04892;0,01204892;0;0;0;0,7533476;0,7505241;11057,83;12139,69
562,5;6,804882;-0,008939675;11,64441;0,01164441;0;0;0;0,756098;0,7532539;10686,59;11732,45
564;6,829933;-0,008941745;10,92319;0,01092319;0;0;0;0,7588814;0,7560164;10024,69;11006,08
565,5;6,855224;-0,008866826;12,46092;0,01246092;0;0;0;0,7616915;0,7588053;11435,94;12555,83
567;6,879857;-0,008893605;11,80141;0,01180141;0;0;0;0,7644286;0,7615216;10830,68;11891,63
568,5;6,905088;-0,008884103;12,29388;0,01229388;0;0;0;0,7672321;0,7643038;11282,64;12388,2
570;6,93002;-0,008787552;12,37571;0,01237571;0;0;0;0,7700022;0,7670529;11357,74;12471
571,5;6,954833;-0,008795512;12,06066;0,01206066;0;0;0;0,7727593;0,7697888;11068,61;12153,86
573;6,980244;-0,008704978;13,24478;0,01324478;0;0;0;0,7755826;0,7725904;12155,33;13347,51
574,5;7,004817;-0,008656661;12,62331;0,01262331;0;0;0;0,778313;0,7752998;11584,97;12721,56
576;7,030108;-0,008597797;12,96591;0,01296591;0;0;0;0,7811231;0,7780881;11899,39;13067,19
577,5;7,05504;-0,008730676;13,32808;0,01332808;0;0;0;0,7838933;0,7808369;12231,78;13432,56
579;7,079913;-0,007927807;11,99963;0,01199963;0;0;0;0,786657;0,783579;11012,6;12094,03
580,5;7,105323;-0,008692096;12,70328;0,01270328;0;0;0;0,7894803;0,7863803;11658,37;12803,57
582;7,129897;-0,00858875;11,70363;0,01170363;0;0;0;0,7922108;0,7890892;10740,94;11796,34
583,5;7,155128;-0,008541202;12,6977;0,0126977;0;0;0;0,7950142;0,7918706;11653,25;12798,65
585;7,18012;-0,00844028;12,61293;0,01261293;0;0;0;0,7977911;0,7946256;11575,45;12713,56
586,5;7,204873;-0,008636478;12,36323;0,01236323;0;0;0;0,8005414;0,7973541;11346,29;12462,2
588;7,230284;-0,008494329;13,24224;0,01324224;0;0;0;0,8033649;0,8001551;12152,99;13348,62
589,5;7,254857;-0,008734515;12,28237;0,01228237;0;0;0;0,8060952;0,8028636;11272,08;12381,38
591;7,280028;-0,008547436;11,61259;0,01161259;0;0;0;0,808892;0,805638;10657,39;11706,53
592,5;7,30514;-0,008678091;13,0611;0,0130611;0;0;0;0,8116822;0,8084058;11986,76;13167,12
594;7,329893;-0,008583322;11,82814;0,01182814;0;0;0;0,8144325;0,8111339;10855,21;11924,47
595,5;7,355183;-0,008640233;13,4684;0,0134684;0;0;0;0,8172426;0,8139213;12360,55;13578,47
597;7,379937;-0,008502329;12,367;0,012367;0;0;0;0,819993;0,8166493;11349,74;12468,4
598,5;7,404988;-0,008595537;12,76191;0,01276192;0;0;0;0,8227764;0,8194101;11712,18;12866,92
600;7,43016;-0,008503149;13,65115;0,01365115;0;0;0;0,8255733;0,8221841;12528,27;13763,85
601,5;7,454853;-0,00869884;12,38691;0,01238691;0;0;0;0,828317;0,8249052;11368,02;12489,52
603;7,480203;-0,008708722;13,98612;0,01398612;0;0;0;0,8311337;0,8276988;12835,69;14102,36
604,5;7,504896;-0,00888019;13,25824;0,01325824;0;0;0;0,8338774;0,8304198;12167,68;13368,8
606;7,529949;-0,008733789;12,54735;0,01254735;0;0;0;0,836661;0,8331804;11515,26;12652,33
607,5;7,555179;-0,009016094;12,90336;0,01290336;0;0;0;0,8394644;0,8359605;11841,99;13011,68
609;7,579872;-0,008995504;12,67333;0,01267333;0;0;0;0,842208;0,8386813;11630,88;12780,06
610,5;7,605223;-0,009179915;13,26842;0,01326842;0;0;0;0,8450248;0,8414745;12177,02;13380,54
612;7,736282;-0,009111453;14,49439;0,01449439;0;0;0;0,859587;0,8559135;13302,15;14618,98
613,5;7,986262;-0,009279831;13,73348;0,01373348;0;0;0;0,8873624;0,8834485;12603,82;13855,34
615;8,236242;-0,0091945;12,45925;0,01245925;0;0;0;0,915138;0,910976;11434,41;12573,27
616,5;8,486281;-0,00932238;14,15972;0,01415972;0;0;0;0,9429201;0,9385024;12995,01;14293,23
618;8,736261;-0,009234236;12,70632;0,01270632;0;0;0;0,9706957;0,9660147;11661,15;12829,66
619,5;8,986242;-0,009283422;12,46077;0,01246077;0;0;0;0,9984713;0,9935195;11435,8;12585,19
621;9,236281;-0,00922675;11,67891;0,01167891;0;0;0;1,026253;1,021023;10718,26;11798,77
622,5;9,486261;-0,009315957;10,48799;0,01048799;0;0;0;1,054029;1,048513;9625,294;10598,53
624;9,73612;-0,009240561;10,96909;0,01096909;0;0;0;1,081791;1,075982;10066,83;11087,76
625,5;9,986101;-0,00926658;10,7443;0,0107443;0;0;0;1,109567;1,103456;9860,523;10863,52
627;10,23614;-0,009103952;11,78859;0,01178859;0;0;0;1,137349;1,13093;10818,92;11922,67
628,5;10,48618;-0,009197055;10,85599;0,01085599;0;0;0;1,165131;1,158396;9963,024;10982,47
630;10,73622;-0,008971773;8,970175;0,008970175;0;0;0;1,192913;1,185854;8232,33;9077,182
631,5;10,9862;-0,009075634;10,08313;0,01008313;0;0;0;1,220689;1,213298;9253,74;10206,22
633;11,23606;-0,008829903;9,136923;0,009136924;0;0;0;1,248451;1,240722;8385,362;9250,993
634,5;11,4861;-0,008955233;9,45882;0,009458819;0;0;0;1,276233;1,268158;8680,78;9579,536
636;11,73614;-0,008729791;9,353153;0,009353152;0;0;0;1,304016;1,295586;8583,806;9475,119
637,5;11,98624;-0,00879489;10,40591;0,01040591;0;0;0;1,331804;1,323014;9549,968;10544,5
639;12,23628;-0,008520452;11,08019;0,01108019;0;0;0;1,359586;1,350427;10168,79;11230,84
640,5;12,48626;-0,008642777;10,48667;0,01048667;0;0;0;1,387362;1,377826;9624,081;10632,15
642;12,73624;-0,008413478;9,449276;0,009449276;0;0;0;1,415138;1,405218;8672,021;9582,996
643,5;12,98616;-0,008614666;9,556656;0,009556656;0;0;0;1,442906;1,432596;8770,569;9694,55
645;13,23614;-0,008335842;9,410024;0,009410024;0;0;0;1,470682;1,459972;8635,998;9548,415
646,5;13,48624;-0,008621953;8,609957;0,008609957;0;0;0;1,498471;1,487355;7901,742;8738,975
648;13,73628;-0,008358161;9,187334;0,009187334;0;0;0;1,526253;1,514723;8431,626;9327,556
649,5;13,98626;-0,007916793;10,42686;0,01042686;0;0;0;1,554029;1,542077;9569,192;10588,89
651;14,23624;-0,008243683;10,00536;0,01000536;0;0;0;1,581804;1,569424;9182,367;10163,63
652,5;14,48616;-0,008721826;9,181804;0,009181804;0;0;0;1,609573;1,596757;8426,551;9329,592
654;14,73614;-0,008519149;9,941395;0,009941394;0;0;0;1,637349;1,624089;9123,661;10104,17
655,5;14,98606;-0,008697881;9,71714;0,009717139;0;0;0;1,665118;1,651406;8917,853;9878,941
657;15,23616;-0,008514986;10,05352;0,01005352;0;0;0;1,692906;1,678736;9226,565;10223,72
658,5;15,48614;-0,008695823;10,74283;0,01074283;0;0;0;1,720682;1,706046;9859,176;10927,68
660;15,73624;-0,008576745;10,07839;0,01007839;0;0;0;1,748471;1,733361;9249,384;10254,6
661,5;15,98616;-0,00879731;8,424611;0,008424611;0;0;0;1,77624;1,760649;7731,641;8574,252
663;16,2362;-0,008726349;9,249345;0,009249345;0;0;0;1,804022;1,787942;8488,536;9416,205
664,5;16,48618;-0,008921309;8,690908;0,008690908;0;0;0;1,831797;1,815222;7976,034;8850,108
666;16,73615;-0,008884713;8,553037;0,008553036;0;0;0;1,859573;1,842494;7849,503;8712,087
667,5;16,98619;-0,009064378;8,089549;0,00808955;0;0;0;1,887355;1,869765;7424,14;8242,228
669;17,23617;-0,009000415;7,840039;0,007840039;0;0;0;1,91513;1,897023;7195,154;7990,186
670,5;17,48628;-0,009131207;7,039923;0,007039923;0;0;0;1,942919;1,924286;6460,852;7176,703
672;17,73619;-0,009035462;7,148527;0,007148527;0;0;0;1,970688;1,951521;6560,522;7289,402
673,5;17,98623;-0,009163446;6,384727;0,006384727;0;0;0;1,99847;1,978763;5859,549;6512,324
675;18,23627;-0,009087761;6,960441;0,006960441;0;0;0;2,026253;2,005997;6387,907;7101,477
676,5;18,48613;-0,009212077;6,331674;0,006331674;0;0;0;2,054015;2,033204;5810,859;6461,727
678;18,73617;-0,009103559;7,049272;0,007049271;0;0;0;2,081797;2,060424;6469,431;7196,023
679,5;18,98615;-0,00926115;5,912186;0,005912186;0;0;0;2,109572;2,087629;5425,876;6036,907
681;19,23625;-0,009125298;7,083776;0,007083776;0;0;0;2,137361;2,11484;6501,097;7235,182
682,5;19,48617;-0,009191976;6,966656;0,006966656;0;0;0;2,16513;2,142024;6393,611;7117,493
684;19,73621;-0,009088375;7,311849;0,007311849;0;0;0;2,192912;2,169214;6710,41;7472,192
685,5;19,98619;-0,009174229;7,292321;0,007292321;0;0;0;2,220688;2,19639;6692,488;7454,261
687;20,23611;-0,009025267;6,618282;0,006618282;0;0;0;2,248457;2,223552;6073,892;6767,091
688,5;20,48621;-0,009081925;7,111918;0,007111918;0;0;0;2,276246;2,250726;6526,924;7273,803
690;20,73607;-0,008949148;7,177502;0,007177501;0;0;0;2,304008;2,277867;6587,113;7342,872
691,5;20,98617;-0,008979018;7,276121;0,007276122;0;0;0;2,331797;2,305026;6677,621;7445,786
693;21,23615;-0,008795559;7,628508;0,007628508;0;0;0;2,359572;2,332165;7001,022;7808,508
694,5;21,48625;-0,008889771;6,781212;0,006781212;0;0;0;2,387361;2,359309;6223,421;6943,104
696;21,73617;-0,008714701;6,308474;0,006308474;0;0;0;2,41513;2,386427;5789,568;6460,832
697,5;21,98615;-0,008745062;6,518047;0,006518047;0;0;0;2,442906;2,413544;5981,903;6677,277
699;22,23619;-0,008611135;5,82032;0,00582032;0;0;0;2,470688;2,44066;5341,567;5964,122
700,5;22,48623;-0,008704398;6,696101;0,006696101;0;0;0;2,49847;2,467769;6145,311;6863,401
702;22,73627;-0,008532684;7,174124;0,007174124;0;0;0;2,526252;2,49487;6584,014;7355,36
703,5;22,98625;-0,008659593;6,733738;0,006733738;0;0;0;2,554028;2,521957;6179,852;6905,72
705;23,23623;-0,0085149;6,980066;0,006980066;0;0;0;2,581803;2,549038;6405,918;7160,278
706,5;23,48627;-0,008617719;6,27862;0,00627862;0;0;0;2,609586;2,576117;5762,169;6442,465
708;23,73619;-0,008516075;6,601886;0,006601886;0;0;0;2,637354;2,603176;6058,845;6776,001
709,5;23,98611;-0,008583268;5,745731;0,005745731;0;0;0;2,665123;2,630227;5273,114;5898,862
711;24,23621;-0,008469354;6,412331;0,006412331;0;0;0;2,692912;2,657291;5884,882;6585,01
712,5;24,48625;-0,008568288;6,519075;0,006519075;0;0;0;2,720694;2,684341;5982,846;6696,439
714;24,73623;-0,008486586;7,319925;0,007319925;0;0;0;2,74847;2,711378;6717,821;7521,111
715,5;24,98615;-0,008576246;6,53596;0,00653596;0;0;0;2,776239;2,7384;5998,342;6717,414
717;25,23613;-0,008478339;7,003559;0,007003559;0;0;0;2,804014;2,765421;6427,478;7199,94
718,5;25,48611;-0,008577756;7,324427;0,007324427;0;0;0;2,83179;2,792436;6721,954;7531,84
720;25,73609;-0,008511987;6,087694;0,006087694;0;0;0;2,859565;2,819443;5586,948;6261,776
721,5;25,98619;-0,008551284;7,389913;0,007389913;0;0;0;2,887354;2,846455;6782,053;7603,286
723;26,23617;-0,00853535;6,690962;0,006690962;0;0;0;2,915129;2,873448;6140,594;6886,012
724,5;26,48621;-0,008575628;6,891871;0,006891871;0;0;0;2,942912;2,900439;6324,978;7094,693
726;26,73619;-0,008532879;6,788945;0,006788945;0;0;0;2,970687;2,927417;6230,518;6990,623
727,5;26,98617;-0,008574375;6,418449;0,006418449;0;0;0;2,998463;2,954388;5890,497;6610,904
728,32;27,12296;-0,008189025;6,833825;0,006833825;0;0;0;3,013663;2,969144;6271,706;7039,774