File: scratch/KRAMS/src/apps/scratch/axel/tensile_tests/pullout156.raw
"Prüfungstyp";"Manuell"
"Methodenname:";"C:\INSTRON\USER\TEMPLATE\Zugversuch Textilbeton.mtM"
"Name:";"Zugversuche Carbon"
"Prüfer";""
"Firma:";""
"Abteilung:";""
"Prüfdatum:";"01.01.97"
"Temperatur:";""
"Feuchtigkeit:";""
"Anmerkung 1:";""
"Anmerkung 2:";""
"Anmerkung 3:";""
"Geometrie:";"Rectangular"
"Probe";1
"Probenname:";"V19-Z-3-1"
"Breite:";100;"mm"
"Dicke:";10;"mm"
"Länge:";900;"mm"
"Durchmesser:";1.000000;"mm"
"Innendurchmesser:";0.500000;"mm"
"Außendurchm.:";1.000000;"mm"
"Wandstärke:";0.500000;"mm"
"Querschnitt:";1000;"mm*mm"
"Lineare Dichte:";1.000000;"den"
"Schlittengewicht:";9.806650;"N"
"Lade-Spannweite:";0.000000;"mm"
"Unterstütz.-Spannweite:";1.000000;"mm"
"Spannweitenverhältnis:";"2"
"Vorrichtungstyp:";"3-point"
"Kommentar:";""
"Eingefügt"
"Endbreite:";100;"mm"
"Enddicke:";10;"mm"
"Endlänge:";900;"mm"
"Enddurchmesser:";1.000000;"mm"
"Endinnendurchmesser:";0.500000;"mm"
"Endaußendurchmesser:";1.000000;"mm"
"Endwandstärke:";0.500000;"mm"
"Endquerschnitt:";1000;"mm*mm"
"Lineare Enddichte:";1.000000;"den"
"Zeit sec";"Verformung mm";"Dehnung 1 %";"Kraft N";"Spannung MPa";"Anz. der Zykl. ";"Zyklenzahl gesamt ";"Wiederholungswert ";"Dehnung [Trav.] %";"Tatsächliche dehnung %";"Zähigkeit gf/tex";"Tatsächliche spannung Pa"
0;-6,294459;-0,007998545;-36,16786;-0,03616786;0;0;0;-0,6993844;-0,7018415;-33192,86;-35914,91
0,5;-6,293682;-0,008480675;-35,80965;-0,03580965;0;0;0;-0,699298;-0,7017545;-32864,11;-35559,23
1;-6,29147;-0,008764362;-30,67888;-0,03067888;0;0;0;-0,6990522;-0,7015071;-28155,38;-30464,42
1,5;-6,289377;-0,008554153;-25,07;-0,02507;0;0;0;-0,6988197;-0,7012729;-23007,86;-24894,8
2;-6,287763;-0,008652988;-22,78995;-0,02278995;0;0;0;-0,6986403;-0,7010922;-20915,36;-22630,73
2,5;-6,286029;-0,008651816;-19,60672;-0,01960672;0;0;0;-0,6984477;-0,7008983;-17993,96;-19469,78
3;-6,284355;-0,008605798;-18,41966;-0,01841966;0;0;0;-0,6982617;-0,7007109;-16904,54;-18291,04
3,5;-6,28286;-0,008593752;-18,07124;-0,01807124;0;0;0;-0,6980956;-0,7005437;-16584,78;-17945,08
4;-6,281186;-0,008771971;-15,45652;-0,01545652;0;0;0;-0,6979095;-0,7003563;-14185,14;-15348,65
4,5;-6,279512;-0,008516917;-14,4854;-0,0144854;0;0;0;-0,6977235;-0,700169;-13293,9;-14384,33
5;-6,277837;-0,008705111;-13,49563;-0,01349563;0;0;0;-0,6975375;-0,6999817;-12385,54;-13401,49
5,5;-6,276044;-0,008613261;-12,14883;-0,01214883;0;0;0;-0,6973382;-0,699781;-11149,52;-12064,11
6;-6,27437;-0,008662139;-9,868095;-0,009868095;0;0;0;-0,6971522;-0,6995937;-9056,391;-9799,299
6,5;-6,272816;-0,008721155;-9,343086;-0,009343086;0;0;0;-0,6969795;-0,6994198;-8574,566;-9277,966
7;-6,271201;-0,008746566;-8,883073;-0,008883073;0;0;0;-0,6968001;-0,6992391;-8152,393;-8821,176
7,5;-6,269527;-0,008654143;-7,14174;-0,00714174;0;0;0;-0,6966141;-0,6990518;-6554,293;-7091,99
8;-6,267793;-0,008851049;-6,290577;-0,006290577;0;0;0;-0,6964215;-0,6988578;-5773,143;-6246,768
8,5;-6,266059;-0,00867057;-4,937653;-0,004937653;0;0;0;-0,6962288;-0,6986638;-4531,504;-4903,276
9;-6,264325;-0,008789921;-3,462373;-0,003462373;0;0;0;-0,6960362;-0,6984698;-3177,574;-3438,273
9,5;-6,262771;-0,008825034;-3,288969;-0,003288968;0;0;0;-0,6958634;-0,6982958;-3018,433;-3266,082
10;-6,261216;-0,008852948;-2,296557;-0,002296557;0;0;0;-0,6956907;-0,6981219;-2107,653;-2280,58
10,5;-6,259482;-0,008791016;-1,229018;-0,001229018;0;0;0;-0,695498;-0,6979279;-1127,925;-1220,471
11;-6,257808;-0,008989972;-0,06976097;-6,976097e-005;0;0;0;-0,695312;-0,6977406;-64,02276;-69,27592
11,5;-6,256134;-0,008692008;1,004679;0,001004679;0;0;0;-0,695126;-0,6975533;922,0383;997,6948
12;-6,25434;-0,008891615;2,613034;0,002613034;0;0;0;-0,6949267;-0,6973526;2398,098;2594,876
12,5;-6,252726;-0,008942632;2,981377;0,002981377;0;0;0;-0,6947474;-0,697172;2736,143;2960,664
13;-6,251172;-0,008872419;2,808805;0,002808805;0;0;0;-0,6945746;-0,696998;2577,766;2789,296
13,5;-6,249498;-0,008972563;3,871401;0,003871401;0;0;0;-0,6943886;-0,6968107;3552,957;3844,518
14;-6,247823;-0,009007913;4,747035;0,004747035;0;0;0;-0,6942026;-0,6966234;4356,565;4714,081
14,5;-6,246089;-0,008758602;6,332387;0,006332387;0;0;0;-0,69401;-0,6964294;5811,514;6288,44
15;-6,244296;-0,009019604;7,571715;0,007571715;0;0;0;-0,6938107;-0,6962288;6948,9;7519,182
15,5;-6,242741;-0,008925512;7,699504;0,007699504;0;0;0;-0,6936379;-0,6960548;7066,178;7646,098
16;-6,241127;-0,008854967;8,859887;0,008859887;0;0;0;-0,6934586;-0,6958741;8131,113;8798,447
16,5;-6,239513;-0,009023806;9,403005;0,009403004;0;0;0;-0,6932792;-0,6956935;8629,557;9337,815
17;-6,237839;-0,008975807;10,07191;0,01007191;0;0;0;-0,6930932;-0,6955062;9243,437;10002,1
17,5;-6,236045;-0,008859781;11,60797;0,01160797;0;0;0;-0,6928939;-0,6953055;10653,15;11527,54
18;-6,234311;-0,009097573;12,53294;0,01253294;0;0;0;-0,6927012;-0,6951115;11502,04;12446,12
18,5;-6,232697;-0,008934459;13,15765;0,01315765;0;0;0;-0,6925219;-0,6949309;12075,36;13066,53
19;-6,231083;-0,008859188;13,76586;0,01376586;0;0;0;-0,6923425;-0,6947503;12633,54;13670,55
19,5;-6,229528;-0,009096073;14,41327;0,01441327;0;0;0;-0,6921698;-0,6945764;13227,7;14313,51
20;-6,227854;-0,008987693;13,96192;0,01396192;0;0;0;-0,6919838;-0,694389;12813,48;13865,31
20,5;-6,22606;-0,008871244;16,31739;0,01631739;0;0;0;-0,6917844;-0,6941884;14975,19;16204,51
21;-6,224386;-0,009141672;16,52349;0,01652349;0;0;0;-0,6915984;-0,694001;15164,34;16409,21
21,5;-6,222712;-0,008843084;17,3119;0,0173119;0;0;0;-0,6914124;-0,6938138;15887,91;17192,21
22;-6,221038;-0,008890484;17,52975;0,01752975;0;0;0;-0,6912264;-0,6936264;16087,83;17408,58
22,5;-6,219483;-0,009100398;17,68915;0,01768915;0;0;0;-0,6910537;-0,6934525;16234,13;17566,91
23;-6,217869;-0,008950151;18,04874;0,01804874;0;0;0;-0,6908743;-0,6932719;16564,13;17924,04
23,5;-6,216075;-0,008946931;18,27774;0,01827774;0;0;0;-0,690675;-0,6930712;16774,3;18151,5
24;-6,214401;-0,009071451;19,26408;0,01926408;0;0;0;-0,690489;-0,6928839;17679,51;19131,07
24,5;-6,212668;-0,008932978;19,51031;0,01951031;0;0;0;-0,6902964;-0,69269;17905,48;19375,63
25;-6,211053;-0,00900909;20,50923;0,02050923;0;0;0;-0,690117;-0,6925093;18822,24;20367,7
25,5;-6,209439;-0,009050215;20,0801;0,0200801;0;0;0;-0,6899376;-0,6923287;18428,41;19941,56
26;-6,207884;-0,009017355;20,59327;0,02059327;0;0;0;-0,6897649;-0,6921548;18899,36;20451,22
26,5;-6,20615;-0,009004866;21,152;0,021152;0;0;0;-0,6895723;-0,6919608;19412,13;21006,14
27;-6,204416;-0,009012828;20,94179;0,02094179;0;0;0;-0,6893796;-0,6917668;19219,21;20797,42
27,5;-6,202742;-0,008947037;21,65161;0,02165161;0;0;0;-0,6891936;-0,6915795;19870,64;21502,38
28;-6,201068;-0,008972969;23,07011;0,02307011;0;0;0;-0,6890076;-0,6913922;21172,47;22911,16
28,5;-6,199454;-0,009012446;22,62943;0,02262943;0;0;0;-0,6888282;-0,6912116;20768,04;22473,55
29;-6,197899;-0,008934757;23,07422;0,02307422;0;0;0;-0,6886554;-0,6910376;21176,24;22915,32
29,5;-6,196165;-0,008999993;23,58049;0,02358049;0;0;0;-0,6884628;-0,6908436;21640,86;23418,14
30;-6,194431;-0,009025068;23,99513;0,02399513;0;0;0;-0,6882702;-0,6906496;22021,4;23829,98
30,5;-6,192757;-0,0089757;23,48216;0,02348216;0;0;0;-0,6880841;-0,6904623;21550,63;23320,58
31;-6,191024;-0,009008063;24,46361;0,02446361;0;0;0;-0,6878915;-0,6902684;22451,34;24295,33
31,5;-6,189409;-0,008950608;24,89866;0,02489866;0;0;0;-0,6877121;-0,6900877;22850,61;24727,43
32;-6,187855;-0,008883785;23,66775;0,02366775;0;0;0;-0,6875394;-0,6899138;21720,95;23505,03
32,5;-6,186121;-0,009087385;24,89225;0,02489225;0;0;0;-0,6873468;-0,6897198;22844,73;24721,15
33;-6,184387;-0,008950635;26,09419;0,02609419;0;0;0;-0,6871541;-0,6895259;23947,8;25914,88
33,5;-6,182773;-0,008847467;25,11455;0,02511455;0;0;0;-0,6869747;-0,6893453;23048,74;24942,02
34;-6,181039;-0,009060632;26,21581;0,02621581;0;0;0;-0,6867821;-0,6891513;24059,42;26035,76
34,5;-6,179364;-0,008978401;26,83019;0,02683019;0;0;0;-0,686596;-0,6889639;24623,26;26645,97
35;-6,17787;-0,00910261;25,76216;0,02576216;0;0;0;-0,68643;-0,6887967;23643,08;25585,32
35,5;-6,176195;-0,00905711;26,33469;0,02633469;0;0;0;-0,686244;-0,6886094;24168,52;26153,97
36;-6,174462;-0,008957143;26,49674;0,02649674;0;0;0;-0,6860513;-0,6884155;24317,24;26314,96
36,5;-6,172847;-0,008865399;25,65816;0,02565815;0;0;0;-0,6858719;-0,6882348;23547,63;25482,17
37;-6,170994;-0,008997603;27,6742;0,0276742;0;0;0;-0,685666;-0,6880275;25397,85;27484,45
37,5;-6,169379;-0,008890781;27,77566;0,02777566;0;0;0;-0,6854866;-0,6878468;25490,96;27585,26
38;-6,167825;-0,008907751;27,35637;0,02735637;0;0;0;-0,6853139;-0,687673;25106,16;27168,89
38,5;-6,166211;-0,008940583;27,15575;0,02715575;0;0;0;-0,6851345;-0,6874924;24922,04;26969,7
39;-6,164477;-0,008891837;27,325;0,027325;0;0;0;-0,6849419;-0,6872984;25077,37;27137,84
39,5;-6,162803;-0,008846833;27,71722;0,02771722;0;0;0;-0,6847559;-0,6871111;25437,33;27527,43
40;-6,161009;-0,008942018;28,80033;0,02880033;0;0;0;-0,6845566;-0,6869104;26431,34;28603,17
40,5;-6,159395;-0,008812107;27,77121;0,02777121;0;0;0;-0,6843772;-0,6867298;25486,88;27581,15
41;-6,15778;-0,008956174;27,77008;0,02777008;0;0;0;-0,6841978;-0,6865492;25485,84;27580,08
41,5;-6,156226;-0,008945849;28,6279;0,0286279;0;0;0;-0,6840251;-0,6863753;26273,1;28432,08
42;-6,154492;-0,008949261;28,86694;0,02886694;0;0;0;-0,6838325;-0,6861813;26492,47;28669,54
42,5;-6,152818;-0,008743022;29,1048;0,0291048;0;0;0;-0,6836464;-0,685994;26710,77;28905,83
43;-6,151084;-0,008955878;28,94588;0,02894588;0;0;0;-0,6834538;-0,6858;26564,93;28748,05
43,5;-6,14935;-0,008761322;29,87056;0,02987056;0;0;0;-0,6832612;-0,6856061;27413,54;29666,46
44;-6,147736;-0,008767287;28,64909;0,02864909;0;0;0;-0,6830817;-0,6854254;26292,55;28453,4
44,5;-6,146181;-0,008872883;12,00661;0,01200661;0;0;0;-0,682909;-0,6852515;11019;11924,62
45;-6,144507;-0,008907114;13,34823;0,01334823;0;0;0;-0,682723;-0,6850642;12250,26;13257,1
45,5;-6,142833;-0,008810089;14,95556;0,01495556;0;0;0;-0,682537;-0,684877;13725,38;14853,48
46;-6,141099;-0,008931267;14,60258;0,01460258;0;0;0;-0,6823443;-0,6846829;13401,44;14502,94
46,5;-6,139365;-0,008826273;15,79962;0,01579962;0;0;0;-0,6821517;-0,684489;14500,02;15691,85
47;-6,137692;-0,008993532;15,63517;0,01563517;0;0;0;-0,6819657;-0,6843017;14349,1;15528,55
47,5;-6,136196;-0,00885148;15,54106;0,01554106;0;0;0;-0,6817996;-0,6841345;14262,72;15435,1
48;-6,134523;-0,00892279;16,28714;0,01628714;0;0;0;-0,6816136;-0,6839472;14947,44;16176,13
48,5;-6,132788;-0,008811997;16,36604;0,01636604;0;0;0;-0,6814209;-0,6837532;15019,84;16254,52
49;-6,131114;-0,008955187;17,4439;0,0174439;0;0;0;-0,681235;-0,6835659;16009,05;17325,07
49,5;-6,129381;-0,008789212;18,69781;0,01869781;0;0;0;-0,6810423;-0,683372;17159,82;18570,47
50;-6,127706;-0,008947015;17,82986;0,01782986;0;0;0;-0,6808562;-0,6831846;16363,26;17708,47
50,5;-6,126152;-0,008867241;18,04208;0,01804208;0;0;0;-0,6806836;-0,6830107;16558,02;17919,27
51;-6,124537;-0,008913174;17,25826;0,01725826;0;0;0;-0,6805041;-0,6828301;15838,68;17140,82
51,5;-6,122863;-0,008825877;18,58437;0,01858437;0;0;0;-0,6803182;-0,6826429;17055,7;18457,93
52;-6,12107;-0,008869771;18,05446;0,01805446;0;0;0;-0,6801189;-0,6824422;16569,38;17931,67
52,5;-6,119336;-0,008803987;19,28576;0,01928576;0;0;0;-0,6799262;-0,6822482;17699,41;19154,63
53;-6,117722;-0,008882156;19,81102;0,01981102;0;0;0;-0,6797469;-0,6820677;18181,45;19676,35
53,5;-6,116107;-0,008739167;20,13932;0,02013932;0;0;0;-0,6795675;-0,681887;18482,76;20002,46
54;-6,114553;-0,008918962;19,83637;0,01983637;0;0;0;-0,6793948;-0,6817131;18204,72;19701,6
54,5;-6,112879;-0,008766564;18,3769;0,0183769;0;0;0;-0,6792087;-0,6815258;16865,3;18252,08
55;-6,111144;-0,008841489;19,74215;0,01974215;0;0;0;-0,6790161;-0,6813319;18118,26;19608,1
55,5;-6,109351;-0,008700772;19,88384;0,01988384;0;0;0;-0,6788168;-0,6811313;18248,29;19748,87
56;-6,107737;-0,008806665;19,96225;0,01996225;0;0;0;-0,6786374;-0,6809506;18320,25;19826,78
56,5;-6,106062;-0,008731013;20,78777;0,02078777;0;0;0;-0,6784514;-0,6807633;19077,86;20646,73
57;-6,104568;-0,008903851;20,00977;0,02000977;0;0;0;-0,6782853;-0,6805961;18363,86;19874,05
57,5;-6,102834;-0,008760784;19,8999;0,0198999;0;0;0;-0,6780927;-0,6804021;18263,02;19764,96
58;-6,1011;-0,008821264;21,02108;0,02102108;0;0;0;-0,6779;-0,6802082;19291,98;20878,57
58,5;-6,099366;-0,008695342;20,94404;0,02094404;0;0;0;-0,6777073;-0,6800142;19221,28;20802,1
59;-6,097692;-0,008765667;21,30852;0,02130852;0;0;0;-0,6775213;-0,6798269;19555,78;21164,15
59,5;-6,096018;-0,008657107;21,02323;0,02102323;0;0;0;-0,6773353;-0,6796396;19293,96;20880,83
60;-6,094523;-0,00881383;20,19169;0,02019169;0;0;0;-0,6771693;-0,6794724;18530,82;20054,96
60,5;-6,092849;-0,008703127;20,39084;0,02039084;0;0;0;-0,6769832;-0,6792851;18713,58;20252,8
61;-6,091115;-0,008862835;20,88448;0,02088448;0;0;0;-0,6767905;-0,6790912;19166,62;20743,13
61,5;-6,089381;-0,008677674;21,1402;0,0211402;0;0;0;-0,676598;-0,6788972;19401,31;20997,17
62;-6,087707;-0,008857001;20,97556;0,02097556;0;0;0;-0,6764119;-0,6787099;19250,21;20833,68
62,5;-6,086033;-0,008734681;21,28835;0,02128835;0;0;0;-0,6762259;-0,6785227;19537,27;21144,4
63;-6,084479;-0,0087491;21,02925;0,02102925;0;0;0;-0,6760532;-0,6783488;19299,48;20887,08
63,5;-6,082864;-0,008725926;21,51261;0,02151261;0;0;0;-0,6758738;-0,6781682;19743,08;21367,21
64;-6,08113;-0,008805324;21,04119;0,02104119;0;0;0;-0,6756812;-0,6779742;19310,44;20899,02
64,5;-6,079456;-0,00872038;20,6265;0,0206265;0;0;0;-0,6754951;-0,6777869;18929,86;20487,17
65;-6,077662;-0,008809032;21,69228;0,02169228;0;0;0;-0,6752958;-0,6775863;19907,97;21545,79
65,5;-6,076048;-0,008722668;21,64378;0,02164377;0;0;0;-0,6751164;-0,6774057;19863,46;21497,65
66;-6,074434;-0,008784861;21,15396;0,02115396;0;0;0;-0,6749371;-0,6772251;19413,93;21011,18
66,5;-6,072879;-0,008758577;21,58867;0,02158867;0;0;0;-0,6747643;-0,6770512;19812,88;21442,99
67;-6,071205;-0,008812036;21,72394;0,02172394;0;0;0;-0,6745784;-0,6768639;19937,03;21577,4
67,5;-6,069412;-0,008641199;21,93733;0,02193733;0;0;0;-0,6743791;-0,6766633;20132,87;21789,39
68;-6,067678;-0,008831857;21,79476;0,02179476;0;0;0;-0,6741864;-0,6764693;20002,03;21647,83
68,5;-6,066004;-0,00869498;21,68714;0,02168714;0;0;0;-0,6740004;-0,6762821;19903,25;21540,97
69;-6,064449;-0,008705217;21,54266;0,02154266;0;0;0;-0,6738276;-0,6761081;19770,66;21397,5
69,5;-6,062895;-0,008715713;21,68459;0,02168459;0;0;0;-0,673655;-0,6759343;19900,92;21538,51
70;-6,061161;-0,008750369;21,49058;0,02149059;0;0;0;-0,6734623;-0,6757403;19722,87;21345,85
70,5;-6,059486;-0,008562541;21,49655;0,02149655;0;0;0;-0,6732762;-0,675553;19728,35;21351,82
71;-6,057812;-0,008687453;21,84052;0,02184052;0;0;0;-0,6730902;-0,6753657;20044,02;21693,52
71,5;-6,056018;-0,008643687;22,4505;0,0224505;0;0;0;-0,6728909;-0,675165;20603,82;22299,43
72;-6,054405;-0,008702818;22,04726;0,02204726;0;0;0;-0,6727117;-0,6749845;20233,75;21898,94
72,5;-6,05291;-0,008703298;22,47859;0,02247859;0;0;0;-0,6725455;-0,6748173;20629,61;22327,41
73;-6,051176;-0,00874448;22,80935;0,02280935;0;0;0;-0,6723529;-0,6746233;20933,15;22655,99
73,5;-6,049501;-0,008508815;22,45676;0,02245676;0;0;0;-0,6721668;-0,674436;20609,57;22305,82
74;-6,047768;-0,008739513;22,25478;0,02225477;0;0;0;-0,6719742;-0,6742421;20424,2;22105,23
74,5;-6,045974;-0,008609211;22,63761;0,02263761;0;0;0;-0,6717749;-0,6740415;20775,54;22485,53
75;-6,044419;-0,008728546;23,02846;0,02302846;0;0;0;-0,6716021;-0,6738675;21134,25;22873,8
75,5;-6,042805;-0,00865432;23,279;0,023279;0;0;0;-0,6714228;-0,673687;21364,18;23122,7
76;-6,041191;-0,008756;23,08377;0,02308377;0;0;0;-0,6712434;-0,6735064;21185;22928,82
76,5;-6,039517;-0,008322611;22,74939;0,02274939;0;0;0;-0,6710575;-0,6733192;20878,13;22596,73
77;-6,037843;-0,008769618;23,18131;0,02318131;0;0;0;-0,6708714;-0,6731318;21274,52;23025,79
77,5;-6,035989;-0,008587763;23,92881;0,02392881;0;0;0;-0,6706654;-0,6729245;21960,54;23768,33
78;-6,034435;-0,008741306;23,25913;0,02325913;0;0;0;-0,6704928;-0,6727507;21345,94;23103,18
78,5;-6,03282;-0,008655068;23,57682;0,02357682;0;0;0;-0,6703134;-0,6725701;21637,5;23418,78
79;-6,031206;-0,008688951;23,78497;0,02378497;0;0;0;-0,670134;-0,6723895;21828,53;23625,58
79,5;-6,029532;-0,008181769;23,28624;0,02328624;0;0;0;-0,669948;-0,6722022;21370,82;23130,24
80;-6,027738;-0,008746533;23,5012;0,0235012;0;0;0;-0,6697487;-0,6720016;21568,1;23343,8
80,5;-6,026004;-0,008598877;24,17318;0,02417318;0;0;0;-0,669556;-0,6718076;22184,81;24011,33
81;-6,02439;-0,008698239;23,87209;0,02387209;0;0;0;-0,6693766;-0,671627;21908,48;23712,29
81,5;-6,022716;-0,008627811;24,11993;0,02411993;0;0;0;-0,6691906;-0,6714398;22135,94;23958,53
82;-6,021162;-0,008666255;23,31997;0,02331997;0;0;0;-0,669018;-0,6712659;21401,77;23163,95
82,5;-6,019547;-0,008638485;24,34003;0,02434003;0;0;0;-0,6688386;-0,6710853;22337,93;24177,23
83;-6,017753;-0,008709753;23,45377;0,02345377;0;0;0;-0,6686392;-0,6708847;21524,57;23296,95
83,5;-6,016079;-0,008577941;24,08538;0,02408538;0;0;0;-0,6684532;-0,6706974;22104,23;23924,38
84;-6,014346;-0,008746057;24,28624;0,02428624;0;0;0;-0,6682606;-0,6705035;22288,57;24123,95
84,5;-6,012731;-0,008594356;24,31683;0,02431683;0;0;0;-0,6680812;-0,6703229;22316,64;24154,37
85;-6,011177;-0,008647377;23,60667;0,02360667;0;0;0;-0,6679085;-0,6701491;21664,89;23449
85,5;-6,009562;-0,008645411;23,39896;0,02339896;0;0;0;-0,6677291;-0,6699684;21474,27;23242,72
86;-6,007768;-0,008662477;24,08479;0,02408479;0;0;0;-0,6675298;-0,6697678;22103,69;23924,02
86,5;-6,006035;-0,008597189;24,11793;0,02411793;0;0;0;-0,6673372;-0,6695739;22134,1;23956,98
87;-6,004361;-0,008718755;24,5102;0,0245102;0;0;0;-0,6671512;-0,6693866;22494,11;24346,68
87,5;-6,002686;-0,008589202;24,65326;0,02465326;0;0;0;-0,6669651;-0,6691993;22625,4;24488,83
88;-6,001132;-0,008599004;24,39289;0,02439289;0;0;0;-0,6667925;-0,6690254;22386,44;24230,24
88,5;-5,999517;-0,008664971;23,89651;0,02389651;0;0;0;-0,666613;-0,6688448;21930,89;23737,21
89;-5,997844;-0,008729305;23,79114;0,02379114;0;0;0;-0,6664271;-0,6686576;21834,19;23632,59
89,5;-5,99605;-0,00855406;25,29955;0,02529955;0;0;0;-0,6662278;-0,668457;23218,53;25131
90;-5,994376;-0,008697514;24,78051;0,02478051;0;0;0;-0,6660417;-0,6682697;22742,18;24615,46
90,5;-5,992701;-0,008561118;24,75257;0,02475257;0;0;0;-0,6658557;-0,6680824;22716,53;24587,75
91;-5,991087;-0,008670413;24,9269;0,0249269;0;0;0;-0,6656764;-0,6679019;22876,53;24760,97
91,5;-5,989533;-0,008598032;23,80978;0,02380978;0;0;0;-0,6655037;-0,667728;21851,3;23651,33
92;-5,868519;-0,00874569;30,89145;0,03089145;0;0;0;-0,6520577;-0,6541929;28350,46;30690,02
92,5;-5,699554;-0,008573896;32,76728;0,03276728;0;0;0;-0,6332837;-0,6352975;30071,99;32559,77
93;-5,53298;-0,008710977;34,35953;0,03435953;0;0;0;-0,6147756;-0,6166731;31533,28;34148,3
93,5;-5,366227;-0,008591691;35,33075;0,03533075;0;0;0;-0,5962475;-0,5980321;32424,61;35120,09
94;-5,199654;-0,008690809;36,68216;0,03668216;0;0;0;-0,5777393;-0,5794147;33664,85;36470,23
94,5;-5,03314;-0,008644016;35,70096;0,03570095;0;0;0;-0,5592378;-0,5608074;32764,36;35501,3
95;-4,866328;-0,008605366;37,31098;0,03731098;0;0;0;-0,5407031;-0,5421702;34241,95;37109,24
95,5;-4,699574;-0,008465745;31,63406;0,03163406;0;0;0;-0,522175;-0,523543;29031,99;31468,87
96;-4,533061;-0,008649474;29,19079;0,02919079;0;0;0;-0,5036734;-0,5049462;26789,69;29043,76
96,5;-4,366368;-0,008454044;27,84242;0,02784242;0;0;0;-0,4851519;-0,4863326;25552,23;27707,34
97;-4,199734;-0,008609361;28,78031;0,02878031;0;0;0;-0,4666371;-0,4677293;26412,97;28646,01
97,5;-4,033041;-0,008464383;26,79436;0,02679436;0;0;0;-0,4481157;-0,4491227;24590,38;26674,29
98;-3,866288;-0,008604992;25,10965;0,02510965;0;0;0;-0,4295875;-0,4305129;23044,25;25001,78
98,5;-3,699655;-0,008454993;22,10486;0,02210486;0;0;0;-0,4110727;-0,4119199;20286,62;22014
99;-3,533021;-0,008619836;22,63996;0,02263996;0;0;0;-0,3925579;-0,3933305;20777,7;22551,08
99,5;-3,366388;-0,008422903;21,52807;0,02152807;0;0;0;-0,3740431;-0,3747444;19757,27;21447,55
100;-3,199635;-0,008607052;21,8647;0,0218647;0;0;0;-0,355515;-0,3561484;20066,21;21786,97
100,5;-3,032882;-0,008450871;21,13125;0,02113125;0;0;0;-0,3369869;-0,337556;19393,09;21060,04
101;-2,866369;-0,008594745;21,63036;0,02163036;0;0;0;-0,3184854;-0,3189936;19851,15;21561,47
101,5;-2,699795;-0,008459451;21,88761;0,02188761;0;0;0;-0,2999772;-0,3004281;20087,23;21821,95
102;-2,532922;-0,008602215;22,85481;0,02285481;0;0;0;-0,2814358;-0,2818326;20974,88;22790,49
102,5;-2,366349;-0,008416651;23,42509;0,02342509;0;0;0;-0,2629277;-0,2632739;21498,25;23363,5
103;-2,199775;-0,008626385;22,2191;0,0222191;0;0;0;-0,2444195;-0,2447187;20391,46;22164,79
103,5;-2,033082;-0,008452162;22,64867;0,02264867;0;0;0;-0,225898;-0,2261536;20785,69;22597,5
104;-1,866329;-0,00858458;22,68435;0,02268435;0;0;0;-0,2073699;-0,2075852;20818,44;22637,31
104,5;-1,699636;-0,008439401;22,19277;0,02219277;0;0;0;-0,1888485;-0,189027;20367,29;22150,85
105;-1,533122;-0,008655171;21,85119;0,02185119;0;0;0;-0,1703469;-0,1704922;20053,81;21813,97
105,5;-1,366489;-0,008376605;22,2442;0,0222442;0;0;0;-0,1518321;-0,1519475;20414,5;22210,43
106;-1,199617;-0,008620642;22,27934;0,02227934;0;0;0;-0,1332907;-0,1333796;20446,75;22249,65
106,5;-1,032983;-0,008377227;22,51187;0,02251187;0;0;0;-0,1147759;-0,1148418;20660,15;22486,03
107;-0,8662901;-0,008606709;22,91031;0,02291031;0;0;0;-0,09625445;-0,09630081;21025,82;22888,26
107,5;-0,6997166;-0,008414774;23,38584;0,02338584;0;0;0;-0,07774629;-0,07777652;21462,23;23367,66
108;-0,5329636;-0,008616097;23,79476;0,02379476;0;0;0;-0,05921818;-0,05923572;21837,51;23780,67
108,5;-0,3663901;-0,008357195;22,9019;0,0229019;0;0;0;-0,04071001;-0,0407183;21018,09;22892,57
109;-0,1996371;-0,008615272;22,73133;0,02273133;0;0;0;-0,0221819;-0,02218437;20861,56;22726,29
109,5;-0,03300381;-0,008366238;22,82222;0,02282222;0;0;0;-0,003667089;-0,003667157;20944,97;22821,38
110;0,1335697;-0,008601707;22,29633;0,02229633;0;0;0;0,01484108;0,01483998;20462,33;22299,64
110,5;0,3003226;-0,00842592;22,98265;0,02298265;0;0;0;0,03336918;0,03336361;21092,21;22990,32
111;0,4670755;-0,008622982;23,03595;0,02303595;0;0;0;0,05189728;0,05188382;21141,12;23047,91
111,5;0,633649;-0,008345073;22,31174;0,02231175;0;0;0;0,07040544;0,07038067;20476,48;22327,45
112;0,8002823;-0,008653276;22,54417;0,02254417;0;0;0;0,08892026;0,08888075;20689,79;22564,22
112,5;0,9670353;-0,008340872;22,52969;0,02252969;0;0;0;0,1074484;0,1073907;20676,5;22553,89
113;1,133728;-0,008615521;23,42142;0,02342142;0;0;0;0,1259698;0,1258905;21494,88;23450,93
113,5;1,300302;-0,00841713;21,63854;0,02163854;0;0;0;0,144478;0,1443737;19858,65;21669,8
114;1,466875;-0,008623765;15,82698;0,01582698;0;0;0;0,1629861;0,1628535;14525,13;15852,78
114,5;1,633688;-0,008308046;20,68836;0,02068836;0;0;0;0,1815209;0,1813563;18986,63;20725,92
115;1,800441;-0,008652897;21,52646;0,02152646;0;0;0;0,200049;0,1998492;19755,79;21569,52
115,5;1,967015;-0,008418803;21,05294;0,02105294;0;0;0;0,2185572;0,2183187;19321,22;21098,95
116;2,133588;-0,008665584;20,17266;0,02017266;0;0;0;0,2370653;0,2367848;18513,35;20220,48
116,5;2,300401;-0,008386576;20,82291;0,02082291;0;0;0;0,2556001;0,255274;19110,11;20876,13
117;2,467034;-0,008605547;21,76745;0,02176745;0;0;0;0,2741149;0,2737399;19976,96;21827,12
117,5;2,633548;-0,008423956;20,05377;0,02005377;0;0;0;0,2926164;0,2921891;18404,24;20112,45
118;2,800241;-0,008616949;20,5201;0,0205201;0;0;0;0,3111379;0,3106548;18832,21;20583,95
118,5;2,967054;-0,008379327;21,67647;0,02167647;0;0;0;0,3296726;0,3291304;19893,46;21747,93
119;3,133687;-0,008636332;21,73339;0,02173339;0;0;0;0,3481874;0,3475827;19945,7;21809,06
119,5;3,30032;-0,00844649;20,36901;0,02036901;0;0;0;0,3667022;0,3660315;18693,55;20443,71
120;3,466893;-0,008621861;20,88702;0,02088702;0;0;0;0,3852104;0,3844703;19168,95;20967,48
120,5;3,633706;-0,008504326;20,94649;0,02094649;0;0;0;0,4037451;0,4029323;19223,53;21031,06
121;3,80034;-0,008600337;21,8254;0,0218254;0;0;0;0,42226;0,421371;20030,14;21917,56
121,5;3,967033;-0,008461325;19,77911;0,01977911;0;0;0;0,4407814;0,4398128;18152,17;19866,29
122;4,133666;-0,008607949;20,93068;0,02093068;0;0;0;0,4592962;0,4582447;19209,02;21026,81
122,5;4,300359;-0,008483367;21,22615;0,02122615;0;0;0;0,4778177;0,4766798;19480,18;21327,57
123;4,466933;-0,00860914;21,61974;0,02161974;0;0;0;0,4963259;0,4950982;19841,4;21727,05
123,5;4,633745;-0,008501135;22,85114;0,02285114;0;0;0;0,5148606;0,5135397;20971,51;22968,79
124;4,800259;-0,008588308;21,8532;0,0218532;0;0;0;0,5333621;0,5319448;20055,66;21969,76
124,5;4,966892;-0,008447283;21,51677;0,02151677;0;0;0;0,5518769;0,5503596;19746,9;21635,51
125;5,133645;-0,008630943;22,03307;0,02203307;0;0;0;0,570405;0,5687843;20220,73;22158,74
125,5;5,300338;-0,008490509;20,06327;0,02006327;0;0;0;0,5889265;0,5871991;18412,96;20181,42
126;5,466972;-0,008624661;20,85095;0,02085095;0;0;0;0,6074413;0,6056038;19135,85;20977,61
126,092;5,497584;-0,008896524;21,07506;0,02107506;0;0;0;0,6108426;0,6089846;19341,52;21203,8