File: scratch/src/apps/scratch/axel/tensile_tests/axelmulttiple.2tdM.raw
"Prüfungstyp";"Manuell"
"Methodenname:";"C:\INSTRON\USER\TEMPLATE\Zugversuch Textilbeton.mtM"
"Name:";"Zugversuche Carbon"
"Prüfer";""
"Firma:";""
"Abteilung:";""
"Prüfdatum:";"01.01.97"
"Temperatur:";""
"Feuchtigkeit:";""
"Anmerkung 1:";""
"Anmerkung 2:";""
"Anmerkung 3:";""
"Geometrie:";"Rectangular"
"Probe";1
"Probenname:";"V19-Z-3-1"
"Breite:";100;"mm"
"Dicke:";10;"mm"
"Länge:";900;"mm"
"Durchmesser:";1.000000;"mm"
"Innendurchmesser:";0.500000;"mm"
"Außendurchm.:";1.000000;"mm"
"Wandstärke:";0.500000;"mm"
"Querschnitt:";1000;"mm*mm"
"Lineare Dichte:";1.000000;"den"
"Schlittengewicht:";9.806650;"N"
"Lade-Spannweite:";0.000000;"mm"
"Unterstütz.-Spannweite:";1.000000;"mm"
"Spannweitenverhältnis:";"2"
"Vorrichtungstyp:";"3-point"
"Kommentar:";""
"Eingefügt"
"Endbreite:";100;"mm"
"Enddicke:";10;"mm"
"Endlänge:";900;"mm"
"Enddurchmesser:";1.000000;"mm"
"Endinnendurchmesser:";0.500000;"mm"
"Endaußendurchmesser:";1.000000;"mm"
"Endwandstärke:";0.500000;"mm"
"Endquerschnitt:";1000;"mm*mm"
"Lineare Enddichte:";1.000000;"den"
"Zeit sec";"Verformung mm";"Dehnung 1 %";"Kraft N";"Spannung MPa";"Anz. der Zykl. ";"Zyklenzahl gesamt ";"Wiederholungswert ";"Dehnung [Trav.] %";"Tatsächliche dehnung %";"Korrigierte Position mm";"Zähigkeit gf/tex";"Tatsächliche spannung Pa"
0;0;-0,007945212;8,369792;0,008369792;0;0;0;0;0;0;7681,332;8369,792
1;0,002989475;-0,008638743;35,25383;0,03525383;0;0;0;0,0003321639;0,0003321633;0,002989475;32354,02;35253,95
2;0,006337686;-0,008616554;87,29309;0,08729309;0;0;0;0,0007041874;0,0007041849;0,006337686;80112,76;87293,7
3;0,01004463;-0,008546024;203,7852;0,2037852;0;0;0;0,001116071;0,001116064;0,01004463;187022,8;203787,5
4;0,01339285;-0,008639639;310,7414;0,3107414;0;0;0;0,001488094;0,001488083;0,01339285;285181,2;310746
5;0,01662148;-0,008696521;406,3311;0,4063311;0;0;0;0,001846831;0,001846814;0,01662148;372908,1;406338,6
6;0,02008927;-0,008693849;505,0862;0,5050862;0;0;0;0,002232141;0,002232116;0,02008927;463540,2;505097,5
7;0,02343748;-0,008647741;589,546;0,589546;0;0;0;0,002604165;0,002604131;0,02343748;541052,6;589561,3
8;0,02660632;-0,008739902;660,802;0,660802;0;0;0;0,002956258;0,002956214;0,02660632;606447,4;660821,5
9;0,03001432;-0,008736479;730,8345;0,7308345;0;0;0;0,003334925;0,003334869;0,03001432;670719,4;730858,9
10;0,03342233;-0,00881055;798,1149;0,798115;0;0;0;0,003713592;0,003713523;0,03342233;732465,7;798144,6
11;0,03659117;-0,008808242;856,8283;0,8568283;0;0;0;0,004065685;0,004065603;0,03659117;786349,6;856863,2
12;0,04005896;-0,00875205;922,2087;0,9222087;0;0;0;0,004450995;0,004450896;0,04005896;846352,1;922249,8
13;0,04340717;-0,008800889;985,0901;0,9850901;0;0;0;0,004823019;0,004822902;0,04340717;904061,1;985137,6
14;0,04657601;-0,008885535;1040,003;1,040003;0;0;0;0,005175113;0,005174979;0,04657601;954456,9;1040057
15;0,04998401;-0,008848948;1099,359;1,099359;0;0;0;0,005553779;0,005553625;0,04998401;1008931;1099420
16;0,05345181;-0,008738947;1156,513;1,156513;0;0;0;0,00593909;0,005938913;0,05345181;1061383;1156581
17;0,05656086;-0,008861267;1206,666;1,206666;0;0;0;0,00628454;0,006284342;0,05656086;1107411;1206742
18;0,05996886;-0,008841737;1260,781;1,260781;0;0;0;0,006663206;0,006662984;0,05996886;1157075;1260865
19;0,06349644;-0,008936176;1313,282;1,313282;0;0;0;0,00705516;0,007054911;0,06349644;1205258;1313375
20;0,06666528;-0,008902258;1358,587;1,358587;0;0;0;0,007407253;0,007406979;0,06666528;1246836;1358688
21;0,0699537;-0,009075545;1320,808;1,320808;0;0;0;0,007772634;0,007772332;0,0699537;1212164;1320910
22;0,07342149;-0,008998;1387,036;1,387036;0;0;0;0,008157943;0,008157611;0,07342149;1272945;1387149
23;0,07670992;-0,008952752;1437,563;1,437562;0;0;0;0,008523325;0,008522961;0,07670992;1319315;1437685
24;0,07993855;-0,00891823;1486,533;1,486533;0;0;0;0,008882062;0,008881667;0,07993855;1364258;1486665
25;0,08340634;-0,008947205;1535,887;1,535887;0;0;0;0,009267371;0,009266941;0,08340634;1409552;1536029
26;0,08675455;-0,00909041;1577,223;1,577223;0;0;0;0,009639394;0,00963893;0,08675455;1447488;1577375
27;0,0899234;-0,009017488;1616,617;1,616617;0;0;0;0,009991488;0,00999099;0,0899234;1483642;1616779
28;0,09339118;-0,008913418;1659,599;1,659599;0;0;0;0,0103768;0,01037626;0,09339118;1523088;1659771
29;0,0967394;-0,009029251;1697,825;1,697825;0;0;0;0,01074882;0,01074824;0,0967394;1558170;1698008
30;0,09990823;-0,009112137;1732,567;1,732567;0;0;0;0,01110092;0,0111003;0,09990823;1590054;1732760
31;0,103376;-0,008939065;1775,391;1,775391;0;0;0;0,01148623;0,01148557;0,103376;1629355;1775595
32;0,106784;-0,009027498;1816,829;1,816828;0;0;0;0,01186489;0,01186419;0,106784;1667385;1817044
33;0,1098931;-0,009157567;1842,887;1,842887;0;0;0;0,01221034;0,0122096;0,1098931;1691300;1843112
34;0,1133609;-0,008986221;1887,014;1,887014;0;0;0;0,01259565;0,01259486;0,1133609;1731797;1887252
35;0,1167689;-0,008965305;1927,418;1,927418;0;0;0;0,01297432;0,01297348;0,1167689;1768877;1927668
36;0,1199377;-0,009184941;1959,165;1,959165;0;0;0;0,01332641;0,01332553;0,1199377;1798013;1959426
37;0,1233457;-0,009062405;1989,778;1,989778;0;0;0;0,01370508;0,01370414;0,1233457;1826108;1990050
38;0,1267537;-0,008935773;2033,364;2,033364;0;0;0;0,01408375;0,01408275;0,1267537;1866109;2033651
39;0,1299226;-0,009103903;2070,719;2,070719;0;0;0;0,01443584;0,0144348;0,1299226;1900391;2071018
40;0,1333306;-0,00909612;2102,592;2,102592;0;0;0;0,01481451;0,01481341;0,1333306;1929643;2102904
41;0,1367983;-0,008950223;2144,566;2,144566;0;0;0;0,01519982;0,01519866;0,1367983;1968164;2144892
42;0,1399672;-0,009021625;2181,699;2,181699;0;0;0;0,01555191;0,0155507;0,1399672;2002242;2182038
43;0,1433154;-0,009087062;2223,372;2,223372;0;0;0;0,01592393;0,01592267;0,1433154;2040488;2223726
44;0,1467234;-0,009031141;2253,625;2,253625;0;0;0;0,0163026;0,01630127;0,1467234;2068252;2253992
45;0,1500118;-0,009072823;2293,171;2,293171;0;0;0;0,01666798;0,01666659;0,1500118;2104546;2293553
46;0,1533002;-0,009079332;2334,167;2,334167;0;0;0;0,01703336;0,01703191;0,1533002;2142169;2334565
47;0,1567082;-0,008976534;2365,502;2,365502;0;0;0;0,01741203;0,01741051;0,1567082;2170927;2365914
48;0,1600565;-0,008990854;2395,309;2,395309;0;0;0;0,01778405;0,01778247;0,1600565;2198282;2395735
49;0,1632851;-0,009176267;2430,847;2,430846;0;0;0;0,01814279;0,01814114;0,1632851;2230896;2431288
50;0,1666931;-0,009007182;2468,721;2,468721;0;0;0;0,01852146;0,01851974;0,1666931;2265656;2469178
51;0,1701011;-0,009010627;2487,973;2,487972;0;0;0;0,01890012;0,01889834;0,1701011;2283323;2488443
52;0,1732699;-0,009131828;2515,828;2,515828;0;0;0;0,01925222;0,01925036;0,1732699;2308888;2516312
53;0,1766779;-0,009053192;2553,396;2,553396;0;0;0;0,01963088;0,01962896;0,1766779;2343365;2553897
54;0,1800859;-0,009013371;2586,001;2,586001;0;0;0;0,02000955;0,02000755;0,1800859;2373289;2586519
55;0,1832548;-0,009105921;2606,564;2,606564;0;0;0;0,02036164;0,02035957;0,1832548;2392160;2607095
56;0,1867226;-0,009121546;2642,675;2,642675;0;0;0;0,02074695;0,0207448;0,1867226;2425301;2643224
57;0,1900708;-0,009013062;2675,955;2,675955;0;0;0;0,02111898;0,02111675;0,1900708;2455844;2676520
58;0,1932396;-0,009094377;2700,013;2,700013;0;0;0;0,02147107;0,02146877;0,1932396;2477922;2700592
59;0,1967074;-0,009046451;2729,908;2,729908;0;0;0;0,02185638;0,02185399;0,1967074;2505358;2730505
60;0,2000556;-0,009008505;2756,164;2,756164;0;0;0;0,0222284;0,02222593;0,2000556;2529454;2756776
61;0,2032245;-0,009095149;2780,406;2,780406;0;0;0;0,0225805;0,02257795;0,2032245;2551703;2781034
62;0,2066325;-0,009059223;2808,42;2,80842;0;0;0;0,02295917;0,02295653;0,2066325;2577413;2809065
63;0,2101003;-0,009054459;2830,983;2,830983;0;0;0;0,02334448;0,02334175;0,2101003;2598119;2831644
64;0,2132691;-0,009116796;2851,772;2,851772;0;0;0;0,02369657;0,02369376;0,2132691;2617198;2852448
65;0,2166771;-0,009046843;2878,601;2,878601;0;0;0;0,02407524;0,02407234;0,2166771;2641821;2879294
66;0,2200851;-0,009021467;2903,103;2,903103;0;0;0;0,0244539;0,02445091;0,2200851;2664308;2903813
67;0,223254;-0,009091951;2917,146;2,917145;0;0;0;0,02480599;0,02480292;0,223254;2677195;2917869
68;0,2266022;-0,00904994;2935,501;2,935501;0;0;0;0,02517802;0,02517485;0,2266022;2694040;2936240
69;0,2301298;-0,009014768;2956,368;2,956368;0;0;0;0,02556997;0,0255667;0,2301298;2713191;2957124
70;0,2332986;-0,009034817;2970,731;2,970731;0;0;0;0,02592207;0,02591871;0,2332986;2726372;2971501
71;0,236587;-0,009004612;2990,176;2,990176;0;0;0;0,02628745;0,02628399;0,236587;2744218;2990962
72;0,2401146;-0,008961397;3017,486;3,017486;0;0;0;0,0266794;0,02667584;0,2401146;2769282;3018291
73;0,2433432;-0,009007679;3035,681;3,035681;0;0;0;0,02703814;0,02703448;0,2433432;2785980;3036502
74;0,2466317;-0,00891645;3044,976;3,044976;0;0;0;0,02740352;0,02739976;0,2466317;2794510;3045810
75;0,2500397;-0,008841953;3071,54;3,07154;0;0;0;0,02778218;0,02777833;0,2500397;2818890;3072394
76;0,2533878;-0,008915915;3094,644;3,094644;0;0;0;0,02815421;0,02815024;0,2533878;2840093;3095516
77;0,2566165;-0,008838145;3115,895;3,115895;0;0;0;0,02851294;0,02850888;0,2566165;2859596;3116783
78;0,2600843;-0,0087528;3135,376;3,135376;0;0;0;0,02889825;0,02889408;0,2600843;2877475;3136282
79;0,2633727;-0,008797527;3148,18;3,14818;0;0;0;0,02926363;0,02925935;0,2633727;2889225;3149101
80;0,2666013;-0,00869389;3164,68;3,16468;0;0;0;0,02962237;0,02961799;0,2666013;2904368;3165617
81;0,2699496;-0,008661477;3182,72;3,18272;0;0;0;0,02999439;0,0299899;0,2699496;2920924;3183674
82;0,2733576;-0,008672781;3192,824;3,192824;0;0;0;0,03037306;0,03036845;0,2733576;2930197;3193794
83;0,2765862;-0,008508178;3199,805;3,199805;0;0;0;0,0307318;0,03072708;0,2765862;2936604;3200788
84;0,280054;-0,008465431;3209,721;3,209721;0;0;0;0,03111711;0,03111227;0,280054;2945704;3210720
85;0,2834022;-0,008535552;3201,393;3,201393;0;0;0;0,03148913;0,03148418;0,2834022;2938061;3202401
86;0,2866308;-0,008351902;3208,155;3,208155;0;0;0;0,03184787;0,0318428;0,2866308;2944267;3209177
87;0,2900388;-0,00836101;3217,666;3,217666;0;0;0;0,03222654;0,03222135;0,2900388;2952996;3218703
88;0,293387;-0,008397207;3230,238;3,230237;0;0;0;0,03259856;0,03259325;0,293387;2964533;3231291
89;0,2966157;-0,008280489;3240,104;3,240104;0;0;0;0,0329573;0,03295187;0,2966157;2973588;3241172
90;0,3000237;-0,00831872;3253,374;3,253374;0;0;0;0,03333597;0,03333041;0,3000237;2985767;3254459
91;0,3034317;-0,008518714;3262,351;3,262352;0;0;0;0,03371463;0,03370895;0,3034317;2994006;3263451
92;0,3066603;-0,008361433;3267,554;3,267554;0;0;0;0,03407337;0,03406756;0,3066603;2998780;3268668
93;0,3099487;-0,008472303;3272,445;3,272445;0;0;0;0,03443874;0,03443282;0,3099487;3003269;3273572
94;0,3134165;-0,008611996;3283,975;3,283975;0;0;0;0,03482405;0,03481799;0,3134165;3013850;3285119
95;0,3166451;-0,008491604;3292,978;3,292978;0;0;0;0,03518279;0,0351766;0,3166451;3022113;3294136
96;0,3199336;-0,008714069;3302,735;3,302736;0;0;0;0,03554818;0,03554186;0,3199336;3031068;3303910
97;0,3233416;-0,008885995;3314,222;3,314222;0;0;0;0,03592684;0,03592039;0,3233416;3041609;3315412
98;0,3267496;-0,008700973;3321,367;3,321367;0;0;0;0,03630551;0,03629892;0,3267496;3048167;3322573
99;0,3299782;-0,008986538;3324,74;3,32474;0;0;0;0,03666424;0,03665753;0,3299782;3051262;3325959
100;0,3333264;-0,008601143;3320,963;3,320963;0;0;0;0,03703627;0,03702941;0,3333264;3047796;3322193
101;0,3367344;-0,009049564;3311,276;3,311276;0;0;0;0,03741493;0,03740794;0,3367344;3038906;3312515
102;0,339963;-0,00906658;3308,844;3,308844;0;0;0;0,03777367;0,03776654;0,339963;3036674;3310094
103;0,3433113;-0,00877871;3309,814;3,309814;0;0;0;0,03814569;0,03813842;0,3433113;3037564;3311077
104;0,346779;-0,008856563;3311,518;3,311518;0;0;0;0,03853101;0,03852358;0,346779;3039128;3312794
105;0,3498881;-0,009015132;3312,601;3,312601;0;0;0;0,03887646;0,0388689;0,3498881;3040122;3313889
106;0,3533559;-0,008690601;3317,504;3,317504;0;0;0;0,03926177;0,03925406;0,3533559;3044621;3318807
107;0,3567639;-0,008712336;3320,865;3,320865;0;0;0;0,03964043;0,03963258;0,3567639;3047706;3322181
108;0,3599327;-0,008850239;3316,851;3,316851;0;0;0;0,03999253;0,03998453;0,3599327;3044022;3318177
109;0,3633407;-0,008742083;3321,322;3,321322;0;0;0;0,04037119;0,04036305;0,3633407;3048125;3322663
110;0,3668085;-0,008498622;3324,753;3,324754;0;0;0;0,0407565;0,0407482;0,3668085;3051275;3326108
111;0,3699774;-0,008595586;3322,012;3,322012;0;0;0;0,0411086;0,04110015;0,3699774;3048758;3323377
112;0,3733256;-0,008736065;3323,021;3,323021;0;0;0;0,04148062;0,04147202;0,3733256;3049684;3324399
113;0,3767934;-0,00848267;3329,165;3,329165;0;0;0;0,04186593;0,04185717;0,3767934;3055323;3330559
114;0,3799622;-0,008440834;3323,483;3,323483;0;0;0;0,04221802;0,04220911;0,3799622;3050109;3324887
115;0,3832506;-0,008688473;3330,334;3,330334;0;0;0;0,04258341;0,04257434;0,3832506;3056396;3331752
116;0,3867782;-0,008450388;3328,981;3,328981;0;0;0;0,04297536;0,04296613;0,3867782;3055155;3330412
117;0,3900666;-0,00824767;3334,823;3,334823;0;0;0;0,04334074;0,04333135;0,3900666;3060516;3336268
118;0,3932953;-0,008482076;3330,859;3,330859;0;0;0;0,04369947;0,04368993;0,3932953;3056878;3332314
119;0,3967631;-0,008518521;3331,195;3,331195;0;0;0;0,04408478;0,04407507;0,3967631;3057186;3332664
120;0,4000515;-0,008276371;3337,052;3,337052;0;0;0;0,04445017;0,04444029;0,4000515;3062562;3338535
121;0,4032801;-0,008320382;3328,076;3,328076;0;0;0;0,0448089;0,04479887;0,4032801;3054324;3329567
122;0,4067479;-0,008575912;3339,157;3,339157;0;0;0;0,04519421;0,045184;0,4067479;3064493;3340666
123;0,4100961;-0,008560442;3331,577;3,331577;0;0;0;0,04556624;0,04555586;0,4100961;3057537;3333095
124;0,4132052;-0,008356258;3334,828;3,334828;0;0;0;0,04591168;0,04590115;0,4132052;3060521;3336359
125;0,4167328;-0,008500449;3333,14;3,33314;0;0;0;0,04630364;0,04629292;0,4167328;3058971;3334684
126;0,420081;-0,008832038;3335,214;3,335214;0;0;0;0,04667566;0,04666477;0,420081;3060875;3336771
127;0,42319;-0,008653493;3332,619;3,332619;0;0;0;0,04702111;0,04701006;0,42319;3058493;3334186
128;0,4267176;-0,008521857;3331,091;3,331091;0;0;0;0,04741307;0,04740183;0,4267176;3057091;3332670
129;0,4300658;-0,008899433;3335,726;3,335726;0;0;0;0,04778509;0,04777367;0,4300658;3061345;3337320
130;0,4332346;-0,0089066;3336,259;3,336259;0;0;0;0,04813718;0,0481256;0,4332346;3061834;3337865
131;0,4367024;-0,008662503;3343,105;3,343105;0;0;0;0,04852249;0,04851072;0,4367024;3068117;3344727
132;0,4400507;-0,008899931;3338,277;3,338277;0;0;0;0,04889452;0,04888257;0,4400507;3063686;3339910
133;0,4432195;-0,009185386;3330,614;3,330614;0;0;0;0,04924661;0,04923449;0,4432195;3056653;3332255
134;0,4466873;-0,008908782;3326,06;3,32606;0;0;0;0,04963192;0,04961961;0,4466873;3052473;3327710
135;0,4500953;-0,008900346;3332,391;3,332391;0;0;0;0,05001059;0,04999809;0,4500953;3058284;3334058
136;0,4532043;-0,009252359;3332,12;3,33212;0;0;0;0,05035604;0,05034336;0,4532043;3058035;3333798
137;0,4566721;-0,009046778;3333,51;3,33351;0;0;0;0,05074135;0,05072848;0,4566721;3059311;3335202
138;0,4600801;-0,008916893;3333,184;3,333184;0;0;0;0,05112002;0,05110695;0,4600801;3059012;3334888
139;0,463249;-0,009220222;3340,214;3,340214;0;0;0;0,05147211;0,05145886;0,463249;3065464;3341933
140;0,466657;-0,009159148;3353,443;3,353443;0;0;0;0,05185077;0,05183734;0,466657;3077605;3355182
141;0,4701248;-0,008850371;3354,303;3,354303;0;0;0;0,05223609;0,05222245;0,4701248;3078394;3356055
142;0,4732936;-0,009026318;3359,304;3,359304;0;0;0;0,05258818;0,05257435;0,4732936;3082983;3361070
143;0,476582;-0,009258933;3355,914;3,355914;0;0;0;0,05295356;0,05293955;0,476582;3079872;3357691
144;0,4800498;-0,008921081;3357,144;3,357144;0;0;0;0,05333887;0,05332465;0,4800498;3081001;3358934
145;0,4833383;-0,008793224;3353,633;3,353633;0;0;0;0,05370425;0,05368984;0,4833383;3077778;3355434
146;0,4866267;-0,009115629;3349,059;3,349059;0;0;0;0,05406963;0,05405502;0,4866267;3073581;3350870
147;0,4900346;-0,00899889;3347,196;3,347196;0;0;0;0,0544483;0,05443348;0,4900346;3071871;3349019
148;0,4933829;-0,00857131;3361,887;3,361887;0;0;0;0,05482032;0,0548053;0,4933829;3085354;3363730
149;0,4966115;-0,008838086;3366,628;3,366627;0;0;0;0,05517906;0,05516384;0,4966115;3089704;3368485
150;0,5000793;-0,008958067;3363,301;3,363301;0;0;0;0,05556437;0,05554894;0,5000793;3086651;3365170
151;0,5034275;-0,008556804;3354,635;3,354635;0;0;0;0,0559364;0,05592076;0,5034275;3078698;3356512
152;0,5065964;-0,008482741;3358,156;3,358156;0;0;0;0,05628848;0,05627265;0,5065964;3081930;3360046
153;0,5100642;-0,008837818;3371,147;3,371147;0;0;0;0,05667379;0,05665774;0,5100642;3093852;3373057
154;0,5134124;-0,008640471;3368,902;3,368902;0;0;0;0,05704582;0,05702955;0,5134124;3091792;3370824
155;0,5165812;-0,008265432;3355,804;3,355804;0;0;0;0,05739791;0,05738144;0,5165812;3079772;3357731
156;0,520049;-0,008577682;3352,94;3,35294;0;0;0;0,05778322;0,05776653;0,520049;3077143;3354878
157;0,5233972;-0,008753882;3375,227;3,375227;0;0;0;0,05815524;0,05813834;0,5233972;3097597;3377190
158;0,5266258;-0,00826405;3365,497;3,365497;0;0;0;0,05851398;0,05849687;0,5266258;3088666;3367466
159;0,5300338;-0,008203263;3360,627;3,360627;0;0;0;0,05889265;0,05887531;0,5300338;3084198;3362606
160;0,5334418;-0,008740934;3358,212;3,358212;0;0;0;0,05927131;0,05925376;0,5334418;3081981;3360203
161;0,5366107;-0,008398558;3371,734;3,371734;0;0;0;0,05962341;0,05960564;0,5366107;3094391;3373744
162;0,5400187;-0,008086663;3370,487;3,370487;0;0;0;0,06000208;0,05998408;0,5400187;3093246;3372509
163;0,5434267;-0,008563655;3366,024;3,366024;0;0;0;0,06038074;0,06036252;0,5434267;3089150;3368056
164;0,5466553;-0,008656021;3354,705;3,354706;0;0;0;0,06073948;0,06072104;0,5466553;3078763;3356743
165;0,5499437;-0,008088513;3354,521;3,354521;0;0;0;0,06110485;0,06108619;0,5499437;3078593;3356570
166;0,5534116;-0,008257908;3369,534;3,369534;0;0;0;0,06149017;0,06147128;0,5534116;3092372;3371606
167;0,5566999;-0,008797951;3360,099;3,360099;0;0;0;0,06185555;0,06183643;0,5566999;3083713;3362177
168;0,5599883;-0,008500502;3344,698;3,344697;0;0;0;0,06222093;0,06220158;0,5599883;3069578;3346779
169;0,5633964;-0,008051681;3368,03;3,368031;0;0;0;0,0625996;0,06258001;0,5633964;3090992;3370139
170;0,5667446;-0,008499191;3357,167;3,357167;0;0;0;0,06297162;0,0629518;0,5667446;3081022;3359281
171;0,5699732;-0,008862809;3343,737;3,343737;0;0;0;0,06333036;0,06331031;0,5699732;3068696;3345854
172;0,5732616;-0,008416182;3364,894;3,364894;0;0;0;0,06369574;0,06367546;0,5732616;3088114;3367037
173;0,5767294;-0,008166691;3354,98;3,35498;0;0;0;0,06408104;0,06406052;0,5767294;3079015;3357130
174;0,5799581;-0,008740705;3339,711;3,339711;0;0;0;0,06443979;0,06441903;0,5799581;3065002;3341863
175;0,5833063;-0,00890036;3361,551;3,361551;0;0;0;0,06481181;0,06479081;0,5833063;3085045;3363729
176;0,5867142;-0,008390004;3351,045;3,351045;0;0;0;0,06519047;0,06516923;0,5867142;3075404;3353230
177;0,5898831;-0,008376457;3352,46;3,35246;0;0;0;0,06554257;0,0655211;0,5898831;3076702;3354657
178;0,5933509;-0,008888621;3356,172;3,356172;0;0;0;0,06592788;0,06590616;0,5933509;3080109;3358384
179;0,5967589;-0,008810473;3344,414;3,344414;0;0;0;0,06630655;0,06628457;0,5967589;3069318;3346632
180;0,5999277;-0,008337117;3326,009;3,326009;0;0;0;0,06665864;0,06663644;0,5999277;3052427;3328226
181;0,603276;-0,008671212;3345,739;3,345739;0;0;0;0,06703066;0,06700821;0,603276;3070534;3347982
182;0,6067437;-0,008994418;3337,22;3,33722;0;0;0;0,06741597;0,06739325;0,6067437;3062716;3339470
183;0,6099724;-0,008607151;3321,125;3,321125;0;0;0;0,06777471;0,06775175;0,6099724;3047944;3323375
184;0,6133206;-0,008477698;3339,508;3,339508;0;0;0;0,06814674;0,06812353;0,6133206;3064815;3341784
185;0,6167884;-0,008985404;3328,762;3,328762;0;0;0;0,06853204;0,06850857;0,6167884;3054953;3331043
186;0,6199572;-0,008907532;3311,294;3,311294;0;0;0;0,06888413;0,06886042;0,6199572;3038922;3313575
187;0,6233054;-0,008474336;3331,279;3,331279;0;0;0;0,06925616;0,06923219;0,6233054;3057263;3333586
188;0,6267732;-0,008888231;3317,997;3,317997;0;0;0;0,06964146;0,06961723;0,6267732;3045074;3320308
189;0,6300019;-0,009179819;3329,785;3,329785;0;0;0;0,07000021;0,06997572;0,6300019;3055892;3332116
190;0,6332305;-0,0087226;3320,78;3,32078;0;0;0;0,07035894;0,0703342;0,6332305;3047628;3323116
191;0,6368178;-0,008828113;3305,989;3,305989;0;0;0;0,07075754;0,07073252;0,6368178;3034054;3308328
192;0,6400464;-0,009296732;3325,398;3,325398;0;0;0;0,07111627;0,071091;0,6400464;3051866;3327763
193;0,6432751;-0,008983773;3308,391;3,308391;0;0;0;0,07147501;0,07144948;0,6432751;3036258;3310755
194;0,6467429;-0,008720764;3310,391;3,31039;0;0;0;0,07186033;0,07183452;0,6467429;3038093;3312769
195;0,6500911;-0,00925027;3313,737;3,313737;0;0;0;0,07223234;0,07220627;0,6500911;3041165;3316131
196;0,65326;-0,009272797;3295,29;3,29529;0;0;0;0,07258444;0,07255811;0,65326;3024234;3297682
197;0,6567277;-0,008744651;3255,701;3,255701;0;0;0;0,07296975;0,07294314;0,6567277;2987902;3258076
198;0,660076;-0,009195402;3252,041;3,252041;0;0;0;0,07334178;0,07331489;0,660076;2984543;3254426
199;0,6632448;-0,009313492;3241,559;3,24156;0;0;0;0,07369386;0,07366673;0,6632448;2974924;3243948
200;0,6667126;-0,008773076;3253,772;3,253772;0;0;0;0,07407918;0,07405176;0,6667126;2986132;3256182
201;0,6700608;-0,009079578;3248,024;3,248024;0;0;0;0,0744512;0,0744235;0,6700608;2980857;3250443
202;0,6732297;-0,009311336;3260,069;3,260069;0;0;0;0,0748033;0,07477533;0,6732297;2991911;3262508
203;0,6766974;-0,008784673;3248,806;3,248806;0;0;0;0,07518861;0,07516035;0,6766974;2981574;3251249
204;0,6800457;-0,008867182;3261,988;3,261988;0;0;0;0,07556063;0,0755321;0,6800457;2993672;3264453
205;0,6832145;-0,00928706;3244,48;3,244481;0;0;0;0,07591272;0,07588392;0,6832145;2977605;3246943
206;0,6867421;-0,008681428;3262,769;3,262769;0;0;0;0,07630467;0,07627558;0,6867421;2994388;3265258
207;0,6900903;-0,008671012;3243,422;3,243422;0;0;0;0,0766767;0,07664732;0,6900903;2976633;3245909
208;0,6931994;-0,009169948;3255,904;3,255904;0;0;0;0,07702215;0,07699251;0,6931994;2988089;3258412
209;0,6966672;-0,008576917;3232,662;3,232662;0;0;0;0,07740746;0,07737752;0,6966672;2966759;3235165
210;0,7001349;-0,008134023;3252,123;3,252123;0;0;0;0,07779277;0,07776253;0,7001349;2984618;3254652
211;0,703244;-0,008972407;3228,501;3,228501;0;0;0;0,07813822;0,07810771;0,703244;2962939;3231024
212;0,7065922;-0,008351313;3241,777;3,241777;0;0;0;0,07851025;0,07847944;0,7065922;2975123;3244322
213;0,7101795;-0,007956175;3257,443;3,257443;0;0;0;0,07890884;0,07887772;0,7101795;2989501;3260014
214;0,7133484;-0,008670358;3232,324;3,232324;0;0;0;0,07926094;0,07922954;0,7133484;2966448;3234886
215;0,716577;-0,008110883;3246,865;3,246866;0;0;0;0,07961967;0,07958799;0,716577;2979793;3249451
216;0,7201046;-0,007809956;3225,337;3,225337;0;0;0;0,08001163;0,07997963;0,7201046;2960035;3227917
217;0,723393;-0,008562289;3242,847;3,242846;0;0;0;0,08037701;0,08034472;0,723393;2976105;3245453
218;0,7265619;-0,008080028;3218,414;3,218414;0;0;0;0,0807291;0,08069653;0,7265619;2953682;3221012
219;0,7300895;-0,007823955;3234,797;3,234797;0;0;0;0,08112106;0,08108817;0,7300895;2968718;3237421
220;0,7333779;-0,008436062;3230,741;3,230741;0;0;0;0,08148643;0,08145325;0,7333779;2964995;3233374
221;0,7366065;-0,008270448;3220,255;3,220255;0;0;0;0,08184516;0,08181169;0,7366065;2955372;3222891
222;0,7400743;-0,007898619;3235,611;3,235611;0;0;0;0,08223048;0,08219669;0,7400743;2969465;3238272
223;0,7434225;-0,008439336;3212,834;3,212834;0;0;0;0,0826025;0,0825684;0,7434225;2948561;3215488
224;0,7465316;-0,008579717;3227,633;3,227633;0;0;0;0,08294795;0,08291357;0,7465316;2962143;3230310
225;0,7500592;-0,008800193;3202,823;3,202823;0;0;0;0,08333991;0,0833052;0,7500592;2939373;3205492
226;0,7534672;-0,008630053;3216,833;3,216833;0;0;0;0,08371858;0,08368355;0,7534672;2952231;3219526
227;0,7565762;-0,008823829;3206,105;3,206105;0;0;0;0,08406403;0,08402871;0,7565762;2942386;3208800
228;0,760044;-0,00890201;3202,489;3,202489;0;0;0;0,08444934;0,08441369;0,760044;2939067;3205194
229;0,7633922;-0,008739306;3202,987;3,202987;0;0;0;0,08482136;0,08478541;0,7633922;2939524;3205704
230;0,7665611;-0,008895034;3181,675;3,181675;0;0;0;0,08517345;0,0851372;0,7665611;2919965;3184385
231;0,7700288;-0,009041404;3191,954;3,191953;0;0;0;0,08555876;0,08552218;0,7700288;2929398;3194685
232;0,7734368;-0,008874102;3172,234;3,172234;0;0;0;0,08593743;0,08590052;0,7734368;2911301;3174960
233;0,7766057;-0,0089109;3180,301;3,180301;0;0;0;0,08628953;0,08625232;0,7766057;2918704;3183045
234;0,7800137;-0,009077877;3183,934;3,183934;0;0;0;0,08666819;0,08663065;0,7800137;2922038;3186693
235;0,7834815;-0,008980285;3169,965;3,169965;0;0;0;0,0870535;0,08701563;0,7834815;2909219;3172725
236;0,7866503;-0,008912039;3177,376;3,177377;0;0;0;0,08740559;0,08736741;0,7866503;2916020;3180154
237;0,7899388;-0,009097665;3163,422;3,163422;0;0;0;0,08777098;0,08773248;0,7899388;2903214;3166199
238;0,7934065;-0,009036083;3171,149;3,171149;0;0;0;0,08815628;0,08811745;0,7934065;2910305;3173944
239;0,796695;-0,00890651;3155,963;3,155963;0;0;0;0,08852167;0,08848251;0,796695;2896368;3158757
240;0,7999834;-0,009058837;3160,759;3,160759;0;0;0;0,08888704;0,08884756;0,7999834;2900769;3163568
241;0,8033316;-0,009082059;3167,95;3,16795;0;0;0;0,08925907;0,08921926;0,8033316;2907369;3170777
242;0,8067396;-0,008966869;3146,77;3,14677;0;0;0;0,08963773;0,08959758;0,8067396;2887931;3149591
243;0,8099683;-0,009130765;3155,566;3,155566;0;0;0;0,08999647;0,089956;0,8099683;2896003;3158406
244;0,8132566;-0,00921173;3149,225;3,149225;0;0;0;0,09036185;0,09032105;0,8132566;2890184;3152071
245;0,8167245;-0,009021627;3143,442;3,143442;0;0;0;0,09074716;0,09070601;0,8167245;2884877;3146295
246;0,8199531;-0,009122783;3146,216;3,146216;0;0;0;0,09110589;0,09106442;0,8199531;2887423;3149082
247;0,8233013;-0,009093527;3123,01;3,12301;0;0;0;0,09147792;0,09143611;0,8233013;2866126;3125867
248;0,8267093;-0,008988727;3130,804;3,130804;0;0;0;0,09185658;0,09181442;0,8267093;2873279;3133680
249;0,8299379;-0,009057694;3135,204;3,135204;0;0;0;0,09221533;0,09217283;0,8299379;2877317;3138095
250;0,8334058;-0,009064625;3116,947;3,116947;0;0;0;0,09260064;0,09255779;0,8334058;2860561;3119833
251;0,8366941;-0,008896582;3115,13;3,11513;0;0;0;0,09296602;0,09292284;0,8366941;2858894;3118026
252;0,8399228;-0,008980777;3120,109;3,12011;0;0;0;0,09332476;0,09328124;0,8399228;2863464;3123021
253;0,8433308;-0,008918144;3122,845;3,122844;0;0;0;0,09370342;0,09365955;0,8433308;2865974;3125771
254;0,8467388;-0,008779115;3098,129;3,098129;0;0;0;0,09408209;0,09403786;0,8467388;2843291;3101044
255;0,8772315;-0,008837745;3124,195;3,124195;0;0;0;0,09747016;0,09742269;0,8772315;2867213;3127240
256;0,9107733;-0,008836757;3086,325;3,086325;0;0;0;0,101197;0,1011459;0,9107733;2832458;3089448
257;0,9440761;-0,008653182;3056,29;3,05629;0;0;0;0,1048973;0,1048424;0,9440761;2804894;3059496
258;0,977319;-0,008683106;3018,714;3,018714;0;0;0;0,108591;0,1085321;0,977319;2770409;3021992
259;1,010442;-0,008668561;2992,397;2,992397;0;0;0;0,1122714;0,1122084;1,010442;2746256;2995757
260;1,043805;-0,008560599;2946,642;2,946642;0;0;0;0,1159783;0,1159111;1,043805;2704265;2950060
261;1,077347;-0,008503414;2836,359;2,83636;0;0;0;0,1197052;0,1196336;1,077347;2603054;2839755
262;1,110769;-0,008572653;2746,742;2,746742;0;0;0;0,1234188;0,1233427;1,110769;2520808;2750132
263;1,143892;-0,008465336;2671,362;2,671362;0;0;0;0,1270992;0,1270185;1,143892;2451628;2674757
264;1,177076;-0,008386837;2598,843;2,598843;0;0;0;0,1307862;0,1307007;1,177076;2385074;2602242
265;1,210498;-0,008524336;2493,07;2,49307;0;0;0;0,1344998;0,1344094;1,210498;2288002;2496424
266;1,24398;-0,008464975;2417,723;2,417723;0;0;0;0,13822;0,1381246;1,24398;2218853;2421065
267;1,277402;-0,008246875;2348,865;2,348865;0;0;0;0,1419336;0,141833;1,277402;2155658;2352199
268;1,310586;-0,007979882;2284,548;2,284548;0;0;0;0,1456206;0,1455147;1,310586;2096632;2287875
269;1,343769;-0,008225768;2226,806;2,226806;0;0;0;0,1493076;0,1491963;1,343769;2043639;2230131
270;1,377072;-0,008201735;2169,45;2,16945;0;0;0;0,1530079;0,152891;1,377072;1991001;2172770
271;1,410614;-0,008120827;2114,45;2,11445;0;0;0;0,1567348;0,1566121;1,410614;1940525;2117764
272;1,444096;-0,008303546;2048,477;2,048477;0;0;0;0,1604551;0,1603265;1,444096;1879979;2051764
273;1,477279;-0,008052165;1985,426;1,985426;0;0;0;0,1641421;0,1640075;1,477279;1822114;1988685
274;1,510462;-0,008183559;1936,36;1,93636;0;0;0;0,1678291;0,1676884;1,510462;1777084;1939610
275;1,543824;-0,008249822;1888,001;1,888001;0;0;0;0,171536;0,1713891;1,543824;1732703;1891240
276;1,577307;-0,008209564;1842,364;1,842364;0;0;0;0,1752563;0,1751029;1,577307;1690820;1845593
277;1,610729;-0,008314524;1780,547;1,780547;0;0;0;0,1789699;0,1788099;1,610729;1634087;1783733
278;1,643972;-0,008341974;1737,279;1,737279;0;0;0;0,1826635;0,1824969;1,643972;1594378;1740452
279;1,677095;-0,008346912;1696,383;1,696383;0;0;0;0,1863439;0,1861705;1,677095;1556847;1699545
280;1,710458;-0,008496908;1653,717;1,653717;0;0;0;0,1900509;0,1898705;1,710458;1517690;1656860
281;1,74388;-0,008443152;1614,429;1,614429;0;0;0;0,1937644;0,193577;1,74388;1481634;1617558
282;1,777422;-0,008481264;1565,392;1,565392;0;0;0;0,1974913;0,1972966;1,777422;1436630;1568483
283;1,810665;-0,008554416;1526,909;1,526909;0;0;0;0,201185;0,2009829;1,810665;1401312;1529980
284;1,843788;-0,008538645;1489,422;1,489422;0;0;0;0,2048654;0,2046558;1,843788;1366909;1492473
285;1,877151;-0,008638746;1450,49;1,45049;0;0;0;0,2085723;0,2083551;1,877151;1331179;1453515
286;1,910513;-0,008687911;1410,064;1,410064;0;0;0;0,2122793;0,2120543;1,910513;1294079;1413057
287;1,943996;-0,008613432;1372,153;1,372153;0;0;0;0,2159995;0,2157666;1,943996;1259286;1375117
288;1,977358;-0,008670113;1340,485;1,340485;0;0;0;0,2197064;0,2194654;1,977358;1230223;1343430
289;2,010481;-0,008767691;1301,984;1,301984;0;0;0;0,2233868;0,2231377;2,010481;1194889;1304892
290;2,043724;-0,008630758;1265,92;1,26592;0;0;0;0,2270805;0,226823;2,043724;1161791;1268795
291;2,077147;-0,008750288;1225,686;1,225686;0;0;0;0,2307941;0,2305282;2,077147;1124867;1228515
292;2,110629;-0,008896691;1190,629;1,190629;0;0;0;0,2345143;0,2342398;2,110629;1092693;1193421
293;2,144051;-0,008657432;1158,372;1,158372;0;0;0;0,2382279;0,2379446;2,144051;1063090;1161132
294;2,177234;-0,008737963;1122,19;1,12219;0;0;0;0,2419149;0,2416228;2,177234;1029883;1124904
295;2,210418;-0,008913524;1086,583;1,086583;0;0;0;0,245602;0,2453008;2,210418;997205,6;1089252
296;2,24384;-0,00880724;1050,916;1,050916;0;0;0;0,2493155;0,2490052;2,24384;964472,3;1053536
297;2,277322;-0,008815706;1015,157;1,015157;0;0;0;0,2530358;0,2527162;2,277322;931655;1017726
298;2,310744;-0,008919609;978,9717;0,9789717;0;0;0;0,2567494;0,2564203;2,310744;898446;981485,2
299;2,343927;-0,008888575;942,1286;0,9421286;0;0;0;0,2604364;0,2600978;2,343927;864633,4;944582,3
300;2,377111;-0,008953777;908,4552;0,9084551;0;0;0;0,2641234;0,2637752;2,377111;833729,8;910854,6
301;2,410473;-0,008916268;866,1143;0,8661143;0;0;0;0,2678303;0,2674723;2,410473;794871,7;868434
302;2,443955;-0,008963146;831,1007;0,8311007;0;0;0;0,2715506;0,2711826;2,443955;762738,2;833357,6
303;2,477437;-0,009074163;802,6124;0,8026124;0;0;0;0,2752708;0,2748926;2,477437;736593,2;804821,8
304;2,51062;-0,008965936;777,1431;0,7771431;0;0;0;0,2789578;0,2785695;2,51062;713218,9;779311
305;2,543804;-0,009046001;741,4296;0,7414296;0;0;0;0,2826448;0,2822462;2,543804;680443;743525,2
306;2,577047;-0,009089054;719,2547;0,7192547;0;0;0;0,2863385;0,2859293;2,577047;660092,1;721314,2
307;2,610589;-0,009011655;698,8706;0,6988705;0;0;0;0,2900654;0,2896455;2,610589;641384,7;700897,7
308;2,644131;-0,009135172;677,3828;0,6773828;0;0;0;0,2937923;0,2933616;2,644131;621664,4;679372,9
309;2,677254;-0,009216404;649,9353;0,6499353;0;0;0;0,2974726;0,2970311;2,677254;596474,6;651868,7
310;2,710377;-0,009111088;627,6926;0,6276926;0;0;0;0,301153;0,3007005;2,710377;576061,5;629582,9
311;2,7438;-0,00913803;610,4089;0,6104089;0;0;0;0,3048666;0,3044028;2,7438;560199,5;612269,9
312;2,777162;-0,00918424;594,8003;0,5948003;0;0;0;0,3085735;0,3080984;2,777162;545874,8;596635,7
313;2,810764;-0,009144592;574,658;0,574658;0;0;0;0,3123071;0,3118204;2,810764;527389,3;576452,7
314;2,844007;-0,009168358;549,2552;0,5492552;0;0;0;0,3160008;0,3155025;2,844007;504076;550990,8
315;2,87713;-0,00919461;526,1319;0,5261319;0;0;0;0,3196811;0,3191712;2,87713;482854,7;527813,9
316;2,910433;-0,009103699;504,9365;0,5049365;0;0;0;0,3233814;0,3228597;2,910433;463402,8;506569,4
317;2,943915;-0,009039286;483,7514;0,4837514;0;0;0;0,3271017;0,3265679;2,943915;443960,3;485333,8
318;2,977397;-0,009038343;458,9141;0,4589141;0;0;0;0,3308219;0,3302759;2,977397;421166;460432,3
319;3,0107;-0,008918964;434,7161;0,4347161;0;0;0;0,3345222;0,3339639;3,0107;398958,3;436170,3
320;3,043883;-0,008856567;411,4419;0,4114419;0;0;0;0,3382092;0,3376386;3,043883;377598,6;412833,4
321;3,077126;-0,008961321;390,6763;0,3906763;0;0;0;0,3419029;0,3413197;3,077126;358541,1;392012
322;3,110548;-0,008828564;371,8444;0,3718444;0;0;0;0,3456165;0,3450206;3,110548;341258,2;373129,5
323;3,14409;-0,008783572;352,957;0,352957;0;0;0;0,3493434;0,3487346;3,14409;323924,3;354190
324;3,177393;-0,008819225;335,7274;0,3357275;0;0;0;0,3530437;0,3524219;3,177393;308112,1;336912,7
325;3,210456;-0,008601687;319,372;0,319372;0;0;0;0,3567174;0,3560827;3,210456;293101,9;320511,2
326;3,243759;-0,008631306;303,0581;0,3030581;0;0;0;0,3604177;0,3597697;3,243759;278129,9;304150,4
327;3,277182;-0,008616593;287,6319;0,2876318;0;0;0;0,3641313;0,3634699;3,277182;263972,6;288679,2
328;3,310724;-0,008533269;272,1644;0,2721644;0;0;0;0,3678582;0,3671832;3,310724;249777,5;273165,6
329;3,344086;-0,008618318;259,471;0,259471;0;0;0;0,3715651;0,3708765;3,344086;238128,1;260435,1
330;3,377209;-0,008463435;245,7716;0,2457716;0;0;0;0,3752455;0,3745432;3,377209;225555,5;246693,8
331;3,410512;-0,008395405;234,1125;0,2341125;0;0;0;0,3789458;0,3782296;3,410512;214855,5;234999,7
332;3,443815;-0,008465874;222,9002;0,2229002;0;0;0;0,3826461;0,3819159;3,443815;204565,4;223753,1
333;3,477357;-0,008252583;212,1524;0,2121524;0;0;0;0,386373;0,3856285;3,477357;194701,8;212972,1
334;3,510779;-0,008367419;201,0111;0,2010112;0;0;0;0,3900866;0,3893277;3,510779;184476,9;201795,3
335;3,543843;-0,008448634;193,1653;0,1931653;0;0;0;0,3937603;0,3929871;3,543843;177276,5;193926
336;3,577086;-0,00832446;185,4176;0,1854176;0;0;0;0,397454;0,3966662;3,577086;170166;186154,5
337;3,610508;-0,008333153;178,1808;0,1781808;0;0;0;0,4011675;0,400365;3,610508;163524,5;178895,6
338;3,64393;-0,008408792;171,7974;0,1717974;0;0;0;0,4048811;0,4040637;3,64393;157666,1;172492,9
339;3,677413;-0,008334945;166,9474;0,1669474;0;0;0;0,4086014;0,4077689;3,677413;153215,1;167629,6
340;3,710655;-0,008482595;156,7446;0,1567446;0;0;0;0,412295;0,4114474;3,710655;143851,5;157390,8
341;3,743839;-0,008440191;145,8948;0,1458949;0;0;0;0,4159821;0,4151193;3,743839;133894,2;146501,7
342;3,777081;-0,008452935;139,53;0,13953;0;0;0;0,4196757;0,4187975;3,777081;128052,9;140115,6
343;3,810564;-0,008538786;131,3818;0,1313818;0;0;0;0,423396;0,4225022;3,810564;120574,9;131938
344;3,844106;-0,008503395;125,7538;0,1257538;0;0;0;0,4271228;0,4262133;3,844106;115409,9;126290,9
345;3,877349;-0,00845232;118,8518;0,1188518;0;0;0;0,4308165;0,4298912;3,877349;109075,6;119363,8
346;3,910531;-0,008587308;111,6549;0,1116549;0;0;0;0,4345035;0,4335622;3,910531;102470,6;112140
347;3,943774;-0,008531346;104,8016;0,1048016;0;0;0;0,4381972;0,4372399;3,943774;96181,13;105260,9
347,5;3,960695;-0,008607583;101,4765;0,1014765;0;0;0;0,4400772;0,4391117;3,960695;93129,52;101923,1