File: scratch/src/apps/scratch/axel/tensile_tests/axelmultipletest.raw
"Prüfungstyp";"Manuell"
"Methodenname:";"C:\INSTRON\USER\TEMPLATE\Zugversuch Textilbeton.mtM"
"Name:";"Zugversuche Carbon"
"Prüfer";""
"Firma:";""
"Abteilung:";""
"Prüfdatum:";"01.01.97"
"Temperatur:";""
"Feuchtigkeit:";""
"Anmerkung 1:";""
"Anmerkung 2:";""
"Anmerkung 3:";""
"Geometrie:";"Rectangular"
"Probe";1
"Probenname:";"V19-Z-3-1"
"Breite:";100;"mm"
"Dicke:";10;"mm"
"Länge:";900;"mm"
"Durchmesser:";1.000000;"mm"
"Innendurchmesser:";0.500000;"mm"
"Außendurchm.:";1.000000;"mm"
"Wandstärke:";0.500000;"mm"
"Querschnitt:";1000;"mm*mm"
"Lineare Dichte:";1.000000;"den"
"Schlittengewicht:";9.806650;"N"
"Lade-Spannweite:";0.000000;"mm"
"Unterstütz.-Spannweite:";1.000000;"mm"
"Spannweitenverhältnis:";"2"
"Vorrichtungstyp:";"3-point"
"Kommentar:";""
"Eingefügt"
"Endbreite:";100;"mm"
"Enddicke:";10;"mm"
"Endlänge:";900;"mm"
"Enddurchmesser:";1.000000;"mm"
"Endinnendurchmesser:";0.500000;"mm"
"Endaußendurchmesser:";1.000000;"mm"
"Endwandstärke:";0.500000;"mm"
"Endquerschnitt:";1000;"mm*mm"
"Lineare Enddichte:";1.000000;"den"
"Zeit sec";"Verformung mm";"Dehnung 1 %";"Kraft N";"Spannung MPa";"Anz. der Zykl. ";"Zyklenzahl gesamt ";"Wiederholungswert ";"Dehnung [Trav.] %";"Tatsächliche dehnung %";"Korrigierte Position mm";"Zähigkeit gf/tex";"Tatsächliche spannung Pa"
0;0;-0,008269069;-563,4008;-0,5634008;0;0;0;0;0;0;-517058;-563400,8
1,5;0,004245054;-0,009127181;-509,386;-0,5093861;0;0;0;0,0004716727;0,0004716715;0,004245054;-467486,3;-509388,4
3;0,01004463;-0,008995181;-330,2533;-0,3302533;0;0;0;0,001116071;0,001116064;0,01004463;-303088,2;-330257
4,5;0,01500716;-0,00904421;-238,2307;-0,2382307;0;0;0;0,001667463;0,001667449;0,01500716;-218634,9;-238234,6
6;0,02002948;-0,008357683;-171,0672;-0,1710672;0;0;0;0,002225498;0,002225473;0,02002948;-156996;-171071
7,5;0,0250518;-0,009136277;-103,9304;-0,1039304;0;0;0;0,002783533;0,002783494;0,0250518;-95381,52;-103933,3
9;0,03001432;-0,009012072;-25,62871;-0,02562871;0;0;0;0,003334925;0,003334869;0,03001432;-23520,61;-25629,57
10,5;0,03509643;-0,009153142;44,52295;0,04452295;0;0;0;0,003899603;0,003899527;0,03509643;40860,7;44524,69
12;0,03999917;-0,008987761;92,38815;0,09238815;0;0;0;0,004444352;0,004444254;0,03999917;84788,73;92392,25
13,5;0,04508128;-0,009140061;157,5636;0,1575636;0;0;0;0,005009031;0,005008905;0,04508128;144603,1;157571,5
15;0,04998401;-0,00904278;218,4926;0,2184926;0;0;0;0,005553779;0,005553625;0,04998401;200520,4;218504,7
16,5;0,05506612;-0,009151369;283,2078;0,2832078;0;0;0;0,006118458;0,006118271;0,05506612;259912,4;283225,1
18;0,05996886;-0,009086343;347,7958;0,3477958;0;0;0;0,006663206;0,006662984;0,05996886;319187,8;347819
19,5;0,06511075;-0,009125854;415,6875;0,4156875;0;0;0;0,007234528;0,007234267;0,06511075;381494,9;415717,6
21;0,0699537;-0,0091165;442,5902;0,4425902;0;0;0;0,007772634;0,007772332;0,0699537;406184,8;442624,6
22,5;0,0750956;-0,00918831;522,2611;0,5222611;0;0;0;0,008343956;0,008343607;0,0750956;479302,3;522304,6
24;0,07993855;-0,009110015;582,8366;0,5828366;0;0;0;0,008882062;0,008881667;0,07993855;534895,1;582888,3
25,5;0,08514024;-0,009193633;648,4967;0,6484967;0;0;0;0,009460026;0,009459579;0,08514024;595154,4;648558,1
27;0,0899234;-0,009120754;703,9482;0,7039482;0;0;0;0,009991488;0,00999099;0,0899234;646044,7;704018,6
28,5;0,09512508;-0,009201117;763,0259;0,7630259;0;0;0;0,01056945;0,01056889;0,09512508;700262,9;763106,6
30;0,09990823;-0,009070711;814,7025;0,8147026;0;0;0;0,01110092;0,0111003;0,09990823;747688,9;814793
31,5;0,1051099;-0,009165168;871,7252;0,8717252;0;0;0;0,01167888;0,0116782;0,1051099;800021,1;871827
33;0,1099529;-0,009023956;922,324;0,9223241;0;0;0;0,01221699;0,01221624;0,1099529;846457,9;922436,7
34,5;0,115035;-0,009074874;975,446;0,975446;0;0;0;0,01278166;0,01278085;0,115035;895210,3;975570,7
36;0,1199377;-0,008911809;1024,113;1,024113;0;0;0;0,01332641;0,01332553;0,1199377;939874,1;1024249
37,5;0,1250198;-0,009035334;1075,512;1,075512;0;0;0;0,01389109;0,01389013;0,1250198;987045,1;1075661
39;0,1299824;-0,00888576;1125,016;1,125016;0;0;0;0,01444248;0,01444144;0,1299824;1032478;1125179
40,5;0,1350047;-0,009004663;1174,49;1,17449;0;0;0;0,01500052;0,01499939;0,1350047;1077882;1174666
42;0,140027;-0,008856876;1220,411;1,220411;0;0;0;0,01555855;0,01555734;0,140027;1120026;1220601
43,5;0,1450493;-0,008929976;1268,655;1,268655;0;0;0;0,01611659;0,01611529;0,1450493;1164301;1268859
45;0,1500716;-0,008804811;1314,833;1,314833;0;0;0;0,01667462;0,01667323;0,1500716;1206681;1315052
46,5;0,1550342;-0,008920211;1358,683;1,358683;0;0;0;0,01722602;0,01722453;0,1550342;1246924;1358917
48;0,1601163;-0,008724776;1402,48;1,40248;0;0;0;0,0177907;0,01778911;0,1601163;1287119;1402730
49,5;0,1649592;-0,008953095;1443,782;1,443782;0;0;0;0,0183288;0,01832712;0,1649592;1325023;1444047
51;0,1701011;-0,008690654;1485,684;1,485684;0;0;0;0,01890012;0,01889834;0,1701011;1363479;1485965
52,5;0,1749441;-0,008938634;1523,712;1,523712;0;0;0;0,01943823;0,01943634;0,1749441;1398379;1524008
54;0,1800859;-0,008681166;1563,28;1,56328;0;0;0;0,02000955;0,02000755;0,1800859;1434691;1563592
55,5;0,1849289;-0,008933218;1600,565;1,600565;0;0;0;0,02054765;0,02054554;0,1849289;1468910;1600894
57;0,1900708;-0,008688515;1639,74;1,63974;0;0;0;0,02111898;0,02111675;0,1900708;1504863;1640086
58,5;0,1949137;-0,008888085;1675,243;1,675243;0;0;0;0,02165708;0,02165474;0,1949137;1537445;1675606
60;0,2000556;-0,008631943;1711,369;1,711369;0;0;0;0,0222284;0,02222593;0,2000556;1570599;1711749
61,5;0,2049584;-0,008844582;1743,923;1,743923;0;0;0;0,02277315;0,02277056;0,2049584;1600476;1744320
63;0,2101003;-0,008670311;1780,371;1,780371;0;0;0;0,02334448;0,02334175;0,2101003;1633926;1780787
64,5;0,2149432;-0,008803878;1810,005;1,810005;0;0;0;0,02388258;0,02387973;0,2149432;1661122;1810437
66;0,2200851;-0,008573287;1843,502;1,843502;0;0;0;0,0244539;0,02445091;0,2200851;1691864;1843953
67,5;0,2249281;-0,00874323;1870,528;1,870528;0;0;0;0,02499201;0,02498889;0,2249281;1716667;1870996
69;0,2300102;-0,00859807;1902,51;1,90251;0;0;0;0,02555669;0,02555342;0,2300102;1746019;1902997
70,5;0,2349129;-0,008612424;1930,909;1,930909;0;0;0;0,02610144;0,02609803;0,2349129;1772082;1931413
72;0,239995;-0,008501044;1961,464;1,961463;0;0;0;0,02666611;0,02666256;0,239995;1800123;1961987
73,5;0,2449576;-0,008587898;1988,052;1,988052;0;0;0;0,02721751;0,0272138;0,2449576;1824524;1988593
75;0,2500397;-0,008455308;2016,855;2,016855;0;0;0;0,02778218;0,02777833;0,2500397;1850958;2017416
76,5;0,2550022;-0,008541138;2037,584;2,037584;0;0;0;0,02833358;0,02832956;0,2550022;1869982;2038161
78;0,2600245;-0,008423954;2053,34;2,05334;0;0;0;0,02889161;0,02888744;0,2600245;1884442;2053934
79,5;0,2650468;-0,008529827;2060,377;2,060377;0;0;0;0,02944965;0,02944531;0,2650468;1890900;2060983
81;0,2700093;-0,00837451;2066,864;2,066864;0;0;0;0,03000104;0,02999654;0,2700093;1896853;2067484
82,5;0,2750317;-0,008512883;2071,088;2,071088;0;0;0;0,03055907;0,0305544;0,2750317;1900730;2071721
84;0,2799942;-0,008431128;2078,585;2,078585;0;0;0;0,03111046;0,03110562;0,2799942;1907610;2079232
85,5;0,2850165;-0,008527076;2084,039;2,084039;0;0;0;0,0316685;0,03166349;0,2850165;1912616;2084699
87;0,2899192;-0,008441854;2089,17;2,08917;0;0;0;0,03221325;0,03220806;0,2899192;1917324;2089843
88,5;0,2950611;-0,008545716;2094,79;2,09479;0;0;0;0,03278457;0,0327792;0,2950611;1922482;2095477
90;0,2999041;-0,008456188;2099,14;2,09914;0;0;0;0,03332267;0,03331712;0,2999041;1926475;2099840
91,5;0,305046;-0,008563755;2109,79;2,10979;0;0;0;0,033894;0,03388825;0,305046;1936248;2110505
93;0,3099487;-0,0084859;2124,519;2,124519;0;0;0;0,03443874;0,03443282;0,3099487;1949766;2125251
94,5;0,3150906;-0,008616257;2148,24;2,14824;0;0;0;0,03501007;0,03500394;0,3150906;1971536;2148992
96;0,3199336;-0,008505392;2169,641;2,169641;0;0;0;0,03554818;0,03554186;0,3199336;1991176;2170412
97,5;0,3251352;-0,008643879;2197,828;2,197828;0;0;0;0,03612614;0,03611961;0,3251352;2017045;2198622
99;0,3299184;-0,008632002;2218,646;2,218646;0;0;0;0,0366576;0,03665088;0,3299184;2036150;2219459
100,5;0,3351201;-0,008715557;2248,164;2,248164;0;0;0;0,03723557;0,03722863;0,3351201;2063241;2249002
102;0,3399033;-0,008678038;2267,424;2,267424;0;0;0;0,03776703;0,0377599;0,3399033;2080916;2268280
103,5;0,3450451;-0,00883178;2295,492;2,295492;0;0;0;0,03833835;0,038331;0,3450451;2106676;2296372
105;0,3498881;-0,008811379;2314,523;2,314523;0;0;0;0,03887646;0,0388689;0,3498881;2124141;2315422
106,5;0,35503;-0,008913816;2340,368;2,340368;0;0;0;0,03944778;0,03944;0,35503;2147860;2341291
108;0,359873;-0,008949775;2360,299;2,360299;0;0;0;0,03998588;0,03997789;0,359873;2166152;2361243
109,5;0,3650149;-0,009062964;2386,58;2,38658;0;0;0;0,04055721;0,04054898;0,3650149;2190271;2387548
111;0,3699176;-0,009037336;2404,649;2,404649;0;0;0;0,04110195;0,04109351;0,3699176;2206854;2405637
112,5;0,3749997;-0,009168516;2428,659;2,428659;0;0;0;0,04166663;0,04165796;0,3749997;2228888;2429671
114;0,380022;-0,009111239;2446,759;2,446759;0;0;0;0,04222467;0,04221575;0,380022;2245500;2447792
115,5;0,3849845;-0,009196091;2470,25;2,47025;0;0;0;0,04277606;0,04276691;0,3849845;2267059;2471307
117;0,3900068;-0,009127948;2486,404;2,486404;0;0;0;0,04333409;0,04332471;0,3900068;2281884;2487481
118,5;0,3949694;-0,009158735;2506,233;2,506233;0;0;0;0,04388549;0,04387586;0,3949694;2300082;2507333
120;0,4000515;-0,009081117;2523,556;2,523556;0;0;0;0,04445017;0,04444029;0,4000515;2315980;2524677
121,5;0,4049542;-0,009117401;2540,596;2,540596;0;0;0;0,04499491;0,0449848;0,4049542;2331618;2541739
123;0,4100364;-0,00902507;2555,888;2,555888;0;0;0;0,0455596;0,04554922;0,4100364;2345653;2557053
124,5;0,4148793;-0,00908412;2571,963;2,571963;0;0;0;0,0460977;0,04608708;0,4148793;2360405;2573148
126;0,4200212;-0,008966093;2586,685;2,586685;0;0;0;0,04666902;0,04665813;0,4200212;2373916;2587892
127,5;0,4249239;-0,009026226;2602,398;2,602398;0;0;0;0,04721377;0,04720263;0,4249239;2388336;2603626
129;0,4300658;-0,009022645;2614,77;2,614769;0;0;0;0,04778509;0,04777367;0,4300658;2399691;2616019
130,5;0,4349088;-0,009068744;2628,445;2,628445;0;0;0;0,0483232;0,04831152;0,4349088;2412242;2629716
132;0,4400507;-0,009028841;2640,073;2,640073;0;0;0;0,04889452;0,04888257;0,4400507;2422913;2641364
133,5;0,4448936;-0,00918372;2646,419;2,646419;0;0;0;0,04943262;0,04942041;0,4448936;2428737;2647727
135;0,4500355;-0,009147478;2655,908;2,655908;0;0;0;0,05000395;0,04999145;0,4500355;2437445;2657236
136,5;0,4548785;-0,009120903;2659,315;2,659315;0;0;0;0,05054205;0,05052928;0,4548785;2440572;2660660
138;0,4600203;-0,009072528;2663,439;2,663439;0;0;0;0,05111337;0,05110031;0,4600203;2444357;2664800
139,5;0,4648633;-0,008990929;2659,956;2,659956;0;0;0;0,05165148;0,05163814;0,4648633;2441161;2661330
141;0,4699454;-0,00884711;2654,237;2,654237;0;0;0;0,05221616;0,05220253;0,4699454;2435911;2655622
142,5;0,4749079;-0,008886236;2638,849;2,638849;0;0;0;0,05276755;0,05275363;0,4749079;2421789;2640241
144;0,4799302;-0,008873217;2620,827;2,620827;0;0;0;0,05332558;0,05331137;0,4799302;2405250;2622225
145,5;0,4849526;-0,009087293;2592,62;2,59262;0;0;0;0,05388362;0,05386911;0,4849526;2379363;2594017
147;0,4899749;-0,009066599;2560,72;2,56072;0;0;0;0,05444165;0,05442684;0,4899749;2350087;2562114
148,5;0,4949972;-0,009144754;2517,135;2,517135;0;0;0;0,05499969;0,05498457;0,4949972;2310087;2518519
150;0,4999597;-0,008787204;2477,665;2,477665;0;0;0;0,05555108;0,05553565;0,4999597;2273864;2479041
151,5;0,5050418;-0,009254339;2439,387;2,439387;0;0;0;0,05611576;0,05610002;0,5050418;2238734;2440756
153;0,5100044;-0,009174234;2405,095;2,405095;0;0;0;0,05666715;0,0566511;0,5100044;2207263;2406458
154,5;0,5150267;-0,009291188;2372,877;2,372878;0;0;0;0,05722519;0,05720882;0,5150267;2177696;2374235
156;0,5199294;-0,009186874;2347,43;2,34743;0;0;0;0,05776994;0,05775326;0,5199294;2154341;2348786
157,5;0,5250713;-0,009232203;2327,246;2,327246;0;0;0;0,05834125;0,05832424;0,5250713;2135817;2328603
159;0,5299142;-0,009185164;2317,138;2,317138;0;0;0;0,05887936;0,05886203;0,5299142;2126541;2318503
160,5;0,5350562;-0,009128053;2312,004;2,312004;0;0;0;0,05945069;0,05943302;0,5350562;2121830;2313379
162;0,5398991;-0,008614922;2309,698;2,309698;0;0;0;0,05998879;0,0599708;0,5398991;2119713;2311083
163,5;0,545041;-0,008997357;2739,799;2,739799;0;0;0;0,06056011;0,06054178;0,545041;2514436;2741458
165;0,549884;-0,008130065;2408,274;2,408273;0;0;0;0,06109822;0,06107956;0,549884;2210180;2409745
166,5;0,5550258;-0,008953467;2771,159;2,771158;0;0;0;0,06166953;0,06165052;0,5550258;2543216;2772867
168;0,5598688;-0,008046948;2513,831;2,513831;0;0;0;0,06220765;0,06218831;0,5598688;2307055;2515395
169,5;0,5651302;-0,008900987;2626,252;2,626252;0;0;0;0,06279225;0,06277254;0,5651302;2410229;2627901
171;0,5699134;-0,007949554;2710,346;2,710346;0;0;0;0,06332371;0,06330367;0,5699134;2487405;2712062
172,5;0,5750553;-0,008840925;2767,783;2,767783;0;0;0;0,06389504;0,06387463;0,5750553;2540118;2769551
174;0,5798982;-0,007871749;2800,685;2,800685;0;0;0;0,06443314;0,06441239;0,5798982;2570314;2802490
175,5;0,5850402;-0,008687278;2831,307;2,831307;0;0;0;0,06500447;0,06498335;0,5850402;2598417;2833148
177;0,5898831;-0,008525944;2852,395;2,852395;0;0;0;0,06554257;0,0655211;0,5898831;2617770;2854265
178,5;0,595025;-0,008598695;2881,284;2,881284;0;0;0;0,06611389;0,06609205;0,595025;2644283;2883189
180;0,5998679;-0,008502589;2901,484;2,901484;0;0;0;0,06665199;0,06662979;0,5998679;2662821;2903417
181,5;0,6050098;-0,008577097;2925,429;2,925429;0;0;0;0,06722332;0,06720073;0,6050098;2684796;2927395
183;0,6099724;-0,008432582;2948,3;2,9483;0;0;0;0,06777471;0,06775175;0,6099724;2705786;2950298
184,5;0,6149947;-0,008549569;2973,367;2,973367;0;0;0;0,06833275;0,06830941;0,6149947;2728792;2975399
186;0,620017;-0,008420588;2994,271;2,994271;0;0;0;0,06889077;0,06886706;0,620017;2747976;2996334
187,5;0,6249795;-0,008490247;3020,065;3,020065;0;0;0;0,06944217;0,06941807;0,6249795;2771648;3022162
189;0,6300616;-0,008348181;3041,198;3,041198;0;0;0;0,07000685;0,06998236;0,6300616;2791044;3043328
190,5;0,6349644;-0,008515676;3064,277;3,064277;0;0;0;0,0705516;0,07052672;0,6349644;2812224;3066439
192;0,6400464;-0,008439471;3087,335;3,087335;0;0;0;0,07111627;0,071091;0,6400464;2833385;3089530
193,5;0,6449493;-0,008551886;3108,028;3,108028;0;0;0;0,07166103;0,07163537;0,6449493;2852376;3110255
195;0,6500911;-0,00840936;3132,831;3,132831;0;0;0;0,07223234;0,07220627;0,6500911;2875138;3135093
196,5;0,6549341;-0,008551809;3153,624;3,153624;0;0;0;0,07277045;0,07274399;0,6549341;2894222;3155919
198;0,660076;-0,008405796;3176,326;3,176326;0;0;0;0,07334178;0,07331489;0,660076;2915056;3178656
199,5;0,6649189;-0,008594008;3198,406;3,198406;0;0;0;0,07387988;0,0738526;0,6649189;2935320;3200769
201;0,6701207;-0,00841295;3222,681;3,222681;0;0;0;0,07445785;0,07443014;0,6701207;2957598;3225080
202,5;0,6749038;-0,008552611;3241,625;3,241625;0;0;0;0,07498931;0,0749612;0,6749038;2974984;3244056
204;0,6801055;-0,008462741;3266,339;3,266339;0;0;0;0,07556728;0,07553874;0,6801055;2997665;3268808
205,5;0,6848886;-0,008597696;3283,722;3,283722;0;0;0;0,07609873;0,07606979;0,6848886;3013618;3286221
207;0,6900903;-0,008377585;3309,105;3,309105;0;0;0;0,0766767;0,07664732;0,6900903;3036913;3311642
208,5;0,6949332;-0,008578341;3327,602;3,327602;0;0;0;0,07721481;0,07718501;0,6949332;3053889;3330171
210;0,7000154;-0,008327824;3349,23;3,349231;0;0;0;0,07777949;0,07774925;0,7000154;3073738;3351835
211,5;0,7049181;-0,008587482;3365,937;3,365937;0;0;0;0,07832424;0,07829358;0,7049181;3089071;3368574
213;0,7099405;-0,008342387;3386,294;3,386294;0;0;0;0,07888227;0,07885118;0,7099405;3107753;3388965
214,5;0,7149029;-0,008542846;3403,099;3,403099;0;0;0;0,07943366;0,07940213;0,7149029;3123176;3405802
216;0,7199253;-0,008274394;3424,149;3,424149;0;0;0;0,0799917;0,07995972;0,7199253;3142495;3426888
217,5;0,7250074;-0,008515153;3443,743;3,443743;0;0;0;0,08055638;0,08052395;0,7250074;3160477;3446517
219;0,7300297;-0,008257859;3463,278;3,463278;0;0;0;0,08111441;0,08108153;0,7300297;3178404;3466087
220,5;0,7349922;-0,008467073;3481,843;3,481843;0;0;0;0,0816658;0,08163247;0,7349922;3195443;3484687
222;0,7399547;-0,008203268;3501,572;3,501572;0;0;0;0,08221719;0,08218341;0,7399547;3213549;3504451
223,5;0,7450966;-0,008470463;3521,362;3,521362;0;0;0;0,08278852;0,08275427;0,7450966;3231711;3524277
225;0,7499994;-0,008217515;3541,401;3,541401;0;0;0;0,08333327;0,08329856;0,7499994;3250101;3544352
226,5;0,7550815;-0,008414192;3561,972;3,561972;0;0;0;0,08389794;0,08386276;0,7550815;3268981;3564961
228;0,7599842;-0,008223029;3580,945;3,580945;0;0;0;0,08444269;0,08440706;0,7599842;3286393;3583968
229,5;0,7650663;-0,008422032;3599,812;3,599813;0;0;0;0,08500737;0,08497126;0,7650663;3303709;3602873
231;0,7699093;-0,008357317;3617,613;3,617613;0;0;0;0,08554548;0,08550891;0,7699093;3320045;3620708
232,5;0,7749914;-0,008480367;3637,248;3,637248;0;0;0;0,08611015;0,0860731;0,7749914;3338065;3640380
234;0,779954;-0,008412708;3657,373;3,657373;0;0;0;0,08666155;0,08662402;0,779954;3356534;3660542
235,5;0,785036;-0,008559303;3675,255;3,675255;0;0;0;0,08722623;0,0871882;0,785036;3372946;3678461
237;0,7899388;-0,008483359;3693,013;3,693013;0;0;0;0,08777098;0,08773248;0,7899388;3389243;3696255
238,5;0,7950807;-0,008487373;3713,019;3,713019;0;0;0;0,0883423;0,0883033;0,7950807;3407603;3716299
240;0,7999236;-0,00841117;3729,036;3,729036;0;0;0;0,0888804;0,08884092;0,7999236;3422303;3732350
241,5;0,8051253;-0,008516355;3748,898;3,748898;0;0;0;0,08945837;0,08941838;0,8051253;3440531;3752252
243;0,8099085;-0,008418772;3763;3,763;0;0;0;0,08998983;0,08994936;0,8099085;3453473;3766387
244,5;0,8151102;-0,008492568;3783,673;3,783673;0;0;0;0,0905678;0,09052681;0,8151102;3472446;3787100
246;0,8198933;-0,008424888;3796,252;3,796252;0;0;0;0,09109925;0,09105778;0,8198933;3483990;3799710
247,5;0,8250352;-0,008132434;3815,268;3,815268;0;0;0;0,09167057;0,09162858;0,8250352;3501441;3818765
249;0,8298782;-0,008499768;3828,901;3,828902;0;0;0;0,09220868;0,0921662;0,8298782;3513954;3832432
250,5;0,83502;-0,007875636;3850,073;3,850073;0;0;0;0,09278;0,09273699;0,83502;3533384;3853645
252;0,8399228;-0,008507437;3865,96;3,86596;0;0;0;0,09332476;0,09328124;0,8399228;3547964;3869568
253,5;0,8449451;-0,007711042;3886,436;3,886436;0;0;0;0,09388279;0,09383875;0,8449451;3566756;3890085
255;0,8499674;-0,008424585;3902,384;3,902384;0;0;0;0,09444083;0,09439626;0,8499674;3581391;3906069
256,5;0,8549897;-0,007702321;3924,53;3,92453;0;0;0;0,09499886;0,09495377;0,8549897;3601716;3928258
258;0,8600121;-0,008390664;3940,895;3,940895;0;0;0;0,0955569;0,09551127;0,8600121;3616735;3944661
259,5;0,8650344;-0,008436755;3963,685;3,963685;0;0;0;0,09611493;0,09606877;0,8650344;3637650;3967494
261;0,8700567;-0,008435119;3979,823;3,979823;0;0;0;0,09667297;0,09662627;0,8700567;3652461;3983670
262,5;0,8750192;-0,007675929;4001,315;4,001315;0;0;0;0,09722435;0,09717713;0,8750192;3672186;4005206
264;0,8800416;-0,00842457;4018,991;4,018991;0;0;0;0,0977824;0,09773462;0,8800416;3688408;4022921
265,5;0,8849442;-0,007683425;4038,759;4,038759;0;0;0;0,09832714;0,09827883;0,8849442;3706549;4042730
267;0,8900862;-0,008390045;4060,356;4,060356;0;0;0;0,09889846;0,09884959;0,8900862;3726370;4064372
268,5;0,8949291;-0,008079354;4077,654;4,077653;0;0;0;0,09943657;0,09938716;0,8949291;3742245;4081708
270;0,900071;-0,008423505;4098,305;4,098306;0;0;0;0,1000079;0,09995792;0,900071;3761198;4102404
271,5;0,9049737;-0,008503975;4118,631;4,118631;0;0;0;0,1005526;0,1005021;0,9049737;3779851;4122772
273;0,9101156;-0,008372442;4139,217;4,139217;0;0;0;0,101124;0,1010729;0,9101156;3798744;4143403
274,5;0,9149586;-0,008498797;4158,508;4,158508;0;0;0;0,1016621;0,1016104;0,9149586;3816448;4162736
276;0,9201005;-0,008359351;4180,559;4,180559;0;0;0;0,1022334;0,1021812;0,9201005;3836686;4184833
277,5;0,9248837;-0,008507069;4196,395;4,196394;0;0;0;0,1027649;0,1027121;0,9248837;3851219;4200707
279;0,9300853;-0,008389033;4223,512;4,223513;0;0;0;0,1033428;0,1032895;0,9300853;3876106;4227877
280,5;0,9349283;-0,00850877;4239,07;4,23907;0;0;0;0,1038809;0,103827;0,9349283;3890384;4243474
282;0,9400104;-0,008448148;4262,099;4,262099;0;0;0;0,1044456;0,1043911;0,9400104;3911518;4266550
283,5;0,9449132;-0,008612088;4279,742;4,279742;0;0;0;0,1049903;0,1049353;0,9449132;3927711;4284236
285;0,9499354;-0,008569307;4303,527;4,303526;0;0;0;0,1055484;0,1054927;0,9499354;3949538;4308069
286,5;0,954898;-0,008698645;4323,615;4,323615;0;0;0;0,1060998;0,1060435;0,954898;3967975;4328202
288;0,9599801;-0,008598938;4349,541;4,349541;0;0;0;0,1066645;0,1066076;0,9599801;3991767;4354180
289,5;0,9650024;-0,008720985;4367,818;4,367817;0;0;0;0,1072225;0,107165;0,9650024;4008541;4372501
291;0,9700247;-0,008662604;4394,3;4,3943;0;0;0;0,1077805;0,1077225;0,9700247;4032845;4399036
292,5;0,975047;-0,008739812;4413,193;4,413193;0;0;0;0,1083386;0,1082799;0,975047;4050184;4417974
294;0,9800096;-0,008755432;4437,096;4,437096;0;0;0;0,10889;0,1088307;0,9800096;4072121;4441927
295,5;0,9850318;-0,008739226;4458,168;4,458168;0;0;0;0,109448;0,1093881;0,9850318;4091460;4463048
297;0,9899944;-0,008778724;4480,62;4,48062;0;0;0;0,1099994;0,1099389;0,9899944;4112065;4485549
298,5;0,9951362;-0,008848826;4502,185;4,502185;0;0;0;0,1105707;0,1105096;0,9951362;4131856;4507163
300;0,9999793;-0,008850615;4523,338;4,523338;0;0;0;0,1111088;0,1110471;0,9999793;4151269;4528364
301,5;1,005061;-0,008826956;4544,002;4,544002;0;0;0;0,1116735;0,1116112;1,005061;4170234;4549077
303;1,009964;-0,008877828;4564,832;4,564832;0;0;0;0,1122182;0,1121553;1,009964;4189350;4569954
304,5;1,015106;-0,008721492;4584,306;4,584306;0;0;0;0,1127896;0,112726;1,015106;4207222;4589477
306;1,019949;-0,008736012;4604,58;4,604579;0;0;0;0,1133277;0,1132635;1,019949;4225828;4609798
307,5;1,024971;-0,008653151;2693,76;2,69376;0;0;0;0,1138857;0,1138209;1,024971;2472184;2696828
309;1,029934;-0,008716339;2779,999;2,779999;0;0;0;0,1144371;0,1143717;1,029934;2551329;2783180
310,5;1,035076;-0,00864607;2826,14;2,826139;0;0;0;0,1150084;0,1149423;1,035076;2593674;2829390
312;1,039978;-0,008666556;2835,635;2,835634;0;0;0;0,1155531;0,1154864;1,039978;2602388;2838911
313,5;1,04512;-0,008761046;2822,952;2,822952;0;0;0;0,1161245;0,1160571;1,04512;2590749;2826230
315;1,049904;-0,008779873;2809,511;2,80951;0;0;0;0,1166559;0,116588;1,049904;2578413;2812788
316,5;1,055105;-0,008909825;2797,057;2,797057;0;0;0;0,1172339;0,1171652;1,055105;2566984;2800336
318;1,059888;-0,008810948;2780,537;2,780537;0;0;0;0,1177654;0,1176961;1,059888;2551823;2783812
319,5;1,06509;-0,008864957;2770,345;2,770345;0;0;0;0,1183433;0,1182734;1,06509;2542470;2773624
321;1,069873;-0,008848818;2754,419;2,754419;0;0;0;0,1188748;0,1188042;1,069873;2527853;2757693
322,5;1,075075;-0,008797602;2734,062;2,734062;0;0;0;0,1194528;0,1193815;1,075075;2509171;2737328
324;1,079918;-0,008698432;2716,96;2,71696;0;0;0;0,1199909;0,1199189;1,079918;2493476;2720220
325,5;1,08506;-0,008725702;2698,814;2,698814;0;0;0;0,1205622;0,1204896;1,08506;2476822;2702068
327;1,089962;-0,008571674;2686,397;2,686397;0;0;0;0,1211069;0,1210337;1,089962;2465427;2689651
328,5;1,095045;-0,008716197;2677,847;2,677847;0;0;0;0,1216716;0,1215977;1,095045;2457580;2681105
330;1,100067;-0,00852719;2665,295;2,665295;0;0;0;0,1222296;0,122155;1,100067;2446060;2668553
331,5;1,105029;-0,008583527;2653,883;2,653883;0;0;0;0,122781;0,1227057;1,105029;2435587;2657141
333;1,110052;-0,008496949;2637,69;2,63769;0;0;0;0,1233391;0,1232631;1,110052;2420726;2640943
334,5;1,114954;-0,00853587;2625,161;2,625161;0;0;0;0,1238838;0,1238071;1,114954;2409227;2628413
336;1,120096;-0,008483516;2617,108;2,617108;0;0;0;0,1244551;0,1243778;1,120096;2401837;2620366
337,5;1,124939;-0,008501379;2606,273;2,606273;0;0;0;0,1249933;0,1249152;1,124939;2391893;2609530
339;1,130081;-0,007653919;2606,669;2,606669;0;0;0;0,1255646;0,1254858;1,130081;2392257;2609942
340,5;1,134984;-0,008542752;2601,476;2,601476;0;0;0;0,1261093;0,1260299;1,134984;2387491;2604757
342;1,140066;-0,007613045;2589,386;2,589386;0;0;0;0,126674;0,1265938;1,140066;2376395;2592666
343,5;1,144969;-0,008553684;2586,373;2,586373;0;0;0;0,1272188;0,1271379;1,144969;2373630;2589663
345;1,150111;-0,008357153;2579,178;2,579178;0;0;0;0,1277901;0,1277085;1,150111;2367027;2582474
346,5;1,154954;-0,008562941;2569,669;2,569669;0;0;0;0,1283282;0,1282459;1,154954;2358300;2572967
348;1,160155;-0,008364553;2556,968;2,556968;0;0;0;0,1289061;0,1288231;1,160155;2346644;2560264
349,5;1,164879;-0,008673057;2541,956;2,541956;0;0;0;0,1294309;0,1293473;1,164879;2332867;2545247
351;1,17008;-0,007650414;2533,229;2,533229;0;0;0;0,1300089;0,1299245;1,17008;2324857;2536522
352,5;1,174923;-0,00862906;2522,152;2,522151;0;0;0;0,130547;0,1304619;1,174923;2314691;2525444
354;1,180065;-0,008029302;2515,893;2,515893;0;0;0;0,1311184;0,1310325;1,180065;2308948;2519192
355,5;1,184908;-0,008674912;2506,921;2,506921;0;0;0;0,1316565;0,1315699;1,184908;2300713;2510221
357;1,19005;-0,008509462;2502,981;2,502981;0;0;0;0,1322278;0,1321404;1,19005;2297097;2506290
358,5;1,194953;-0,008685931;2495,78;2,49578;0;0;0;0,1327725;0,1326845;1,194953;2290489;2499094
360;1,200035;-0,008586681;2497,086;2,497086;0;0;0;0,1333372;0,1332484;1,200035;2291687;2500415
361,5;1,204997;-0,008669677;2489,181;2,489181;0;0;0;0,1338886;0,1337991;1,204997;2284433;2492514
363;1,21002;-0,008637471;2485,125;2,485125;0;0;0;0,1344466;0,1343563;1,21002;2280710;2488466
364,5;1,215042;-0,008718832;2474,977;2,474977;0;0;0;0,1350047;0,1349136;1,215042;2271396;2478318
366;1,220004;-0,008638339;2465,945;2,465945;0;0;0;0,1355561;0,1354643;1,220004;2263108;2469288
367,5;1,225087;-0,008837241;2460,35;2,46035;0;0;0;0,1361207;0,1360282;1,225087;2257973;2463699
369;1,230049;-0,008626048;2459,145;2,459145;0;0;0;0,1366721;0,1365788;1,230049;2256867;2462506
370,5;1,235072;-0,008774975;2456,624;2,456624;0;0;0;0,1372302;0,1371361;1,235072;2254553;2459995
372;1,239974;-0,008683;2455,341;2,455341;0;0;0;0,1377749;0,1376801;1,239974;2253376;2458723
373,5;1,245056;-0,008797535;2451,895;2,451895;0;0;0;0,1383396;0,138244;1,245056;2250213;2455287
375;1,249959;-0,008704428;2442,691;2,442691;0;0;0;0,1388843;0,138788;1,249959;2241766;2446083
376,5;1,255101;-0,008848119;2431,375;2,431375;0;0;0;0,1394557;0,1393585;1,255101;2231381;2434766
378;1,259944;-0,008661645;2428,13;2,428129;0;0;0;0,1399938;0,1398959;1,259944;2228403;2431529
379,5;1,265086;-0,008852948;2418,72;2,41872;0;0;0;0,1405651;0,1404664;1,265086;2219767;2422120
381;1,269929;-0,008588911;2415,841;2,415841;0;0;0;0,1411032;0,1410037;1,269929;2217125;2419250
382,5;1,275071;-0,008868311;2419,251;2,419251;0;0;0;0,1416745;0,1415743;1,275071;2220254;2422678
384;1,279973;-0,008600256;2420,478;2,420478;0;0;0;0,1422193;0,1421182;1,279973;2221381;2423921
385,5;1,285115;-0,008847986;2417,41;2,41741;0;0;0;0,1427906;0,1426887;1,285115;2218565;2420862
387;1,289899;-0,008563853;2429,071;2,429071;0;0;0;0,1433221;0,1432195;1,289899;2229267;2432553
388,5;1,2951;-0,008763695;2425,386;2,425386;0;0;0;0,1439;0,1437966;1,2951;2225885;2428876
390;1,299943;-0,008464997;2419,702;2,419702;0;0;0;0,1444381;0,1443339;1,299943;2220669;2423197
391,5;1,305085;-0,008754239;2417,73;2,41773;0;0;0;0,1450094;0,1449044;1,305085;2218859;2421236
393;1,309928;-0,008452642;2425,077;2,425077;0;0;0;0,1455476;0,1454417;1,309928;2225601;2428607
394,5;1,31507;-0,008707183;2419,841;2,419841;0;0;0;0,1461189;0,1460122;1,31507;2220796;2423377
396;1,319973;-0,008455284;2419,165;2,419165;0;0;0;0,1466636;0,1465562;1,319973;2220176;2422713
397,5;1,325055;-0,008652469;2412,156;2,412156;0;0;0;0,1472283;0,14712;1,325055;2213743;2415708
399;1,329957;-0,008407324;2408,937;2,408937;0;0;0;0,1477731;0,147664;1,329957;2210789;2412497
400,5;1,33504;-0,008551959;2417,561;2,417561;0;0;0;0,1483377;0,1482278;1,33504;2218704;2421147
402;1,340062;-0,008436436;2398,54;2,39854;0;0;0;0,1488958;0,148785;1,340062;2201247;2402111
403,5;1,345024;-0,008528411;2407,019;2,407019;0;0;0;0,1494472;0,1493356;1,345024;2209029;2410617
405;1,350047;-0,008404118;2391,282;2,391282;0;0;0;0,1500052;0,1498928;1,350047;2194586;2394869
406,5;1,355009;-0,008528212;2385,067;2,385067;0;0;0;0,1505566;0,1504434;1,355009;2188883;2388658
408;1,360091;-0,008464152;2376,465;2,376466;0;0;0;0,1511213;0,1510072;1,360091;2180988;2380057
409,5;1,364994;-0,008314772;2381,138;2,381138;0;0;0;0,151666;0,1515511;1,364994;2185276;2384749
411;1,406189;-0,008594852;2387,247;2,387247;0;0;0;0,1562432;0,1561213;1,406189;2190883;2390977
412,5;1,456352;-0,007879401;2335,991;2,335991;0;0;0;0,1618169;0,1616862;1,456352;2143844;2339771
414;1,506277;-0,008560884;2287,061;2,287061;0;0;0;0,1673641;0,1672242;1,506277;2098938;2290889
415,5;1,556081;-0,008356359;2196,526;2,196526;0;0;0;0,1728979;0,1727486;1,556081;2015850;2200324
417;1,606065;-0,008648316;2067,994;2,067994;0;0;0;0,1784517;0,1782927;1,606065;1897891;2071685
418,5;1,656169;-0,00798168;1947,313;1,947313;0;0;0;0,1840188;0,1838497;1,656169;1787136;1950897
420;1,706392;-0,008653695;1874,875;1,874875;0;0;0;0,1895991;0,1894196;1,706392;1720656;1878429
421,5;1,756257;-0,007928673;1802,773;1,802773;0;0;0;0,1951396;0,1949495;1,756257;1654485;1806291
423;1,806121;-0,008601561;1725,303;1,725303;0;0;0;0,2006801;0,200479;1,806121;1583388;1728766
424,5;1,856165;-0,007998741;1650,223;1,650223;0;0;0;0,2062405;0,2060282;1,856165;1514483;1653626
426;1,906209;-0,008744521;1576,707;1,576707;0;0;0;0,211801;0,211577;1,906209;1447015;1580047
427,5;1,956312;-0,008024919;1512,317;1,512317;0;0;0;0,217368;0,2171321;1,956312;1387920;1515604
429;2,006117;-0,008806487;1448,484;1,448484;0;0;0;0,2229019;0,2226538;2,006117;1329338;1451713
430,5;2,055981;-0,008103516;1395,809;1,395809;0;0;0;0,2284424;0,2281818;2,055981;1280997;1398998
432;2,106025;-0,008783251;1339,853;1,339853;0;0;0;0,2340028;0,2337294;2,106025;1229643;1342988
433,5;2,156248;-0,00805094;1282,329;1,282329;0;0;0;0,2395831;0,2392966;2,156248;1176850;1285401
435;2,206352;-0,008784574;1232,733;1,232733;0;0;0;0,2451502;0,2448502;2,206352;1131334;1235755
436,5;2,256097;-0,008115628;1179,567;1,179567;0;0;0;0,2506774;0,2503637;2,256097;1082542;1182524
438;2,306021;-0,00885687;1133,903;1,133903;0;0;0;0,2562245;0,2558968;2,306021;1040634;1136809
439,5;2,356124;-0,008157118;1075,65;1,07565;0;0;0;0,2617916;0,2614495;2,356124;987172,1;1078466
441;2,406347;-0,008951179;1015,157;1,015157;0;0;0;0,267372;0,2670151;2,406347;931654,5;1017871
442,5;2,456332;-0,009035148;957,8591;0,9578591;0;0;0;0,2729257;0,272554;2,456332;879070;960473,4
444;2,506076;-0,008960282;893,0678;0,8930678;0;0;0;0,2784529;0,278066;2,506076;819608,1;895554,5
445,5;2,55606;-0,009056058;840,4181;0,8404182;0;0;0;0,2840067;0,2836042;2,55606;771289,2;842805
447;2,606104;-0,008920612;790,2318;0,7902318;0;0;0;0,2895671;0,2891487;2,606104;725230,9;792520
448,5;2,656268;-0,00901325;740,1536;0,7401536;0;0;0;0,2951408;0,2947062;2,656268;679271,9;742338,1
450;2,706192;-0,008973325;700,0615;0,7000616;0;0;0;0,300688;0,3002368;2,706192;642477,7;702166,5
451,5;2,756056;-0,00910187;659,5782;0,6595783;0;0;0;0,3062285;0,3057605;2,756056;605324,4;661598,1
453;2,80604;-0,009035061;626,3195;0,6263195;0;0;0;0,3117823;0,3112972;2,80604;574801,3;628272,2
454,5;2,856204;-0,00909734;591,22;0,59122;0;0;0;0,317356;0,3168535;2,856204;542588,9;593096,2
456;2,906367;-0,009049857;554,6295;0,5546294;0;0;0;0,3229297;0,3224094;2,906367;509008,2;556420,5
457,5;2,956232;-0,00907854;528,9657;0,5289657;0;0;0;0,3284702;0,3279319;2,956232;485455,4;530703,2
459;3,006096;-0,009092377;509,2103;0,5092102;0;0;0;0,3340107;0,3334541;3,006096;467325;510911,1
460,5;3,05608;-0,009038793;491,5345;0,4915345;0;0;0;0,3395644;0,3389892;3,05608;451103,2;493203,6
462;3,106303;-0,00901063;473,8692;0,4738692;0;0;0;0,3451448;0,3445505;3,106303;434890,9;475504,8
463,5;3,156287;-0,008878674;457,1927;0,4571927;0;0;0;0,3506986;0,3500851;3,156287;419586,2;458796,1
465;3,206092;-0,008910963;439,8701;0,4398701;0;0;0;0,3562324;0,3555994;3,206092;403688,4;441437
466,5;3,255956;-0,008786593;426,675;0,426675;0;0;0;0,3617729;0,3611201;3,255956;391578,6;428218,6
468;3,30612;-0,008733335;410,3848;0,4103848;0;0;0;0,3673466;0,3666736;3,30612;376628,5;411892,4
469,5;3,356343;-0,008621074;391,2172;0,3912172;0;0;0;0,372927;0,3722333;3,356343;359037,5;392676,2
471;3,406267;-0,008577752;379,0087;0,3790087;0;0;0;0,3784741;0,3777597;3,406267;347833,2;380443,2
472,5;3,456132;-0,008540456;347,1343;0,3471343;0;0;0;0,3840146;0,3832792;3,456132;318580,7;348467,4
474;3,506056;-0,008567893;319,8598;0,3198598;0;0;0;0,3895617;0,3888049;3,506056;293549,6;321105,9
475,5;3,556219;-0,008482402;290,2923;0,2902923;0;0;0;0,3951355;0,3943569;3,556219;266414,2;291439,4
477;3,606383;-0,008539702;269,7509;0,2697509;0;0;0;0,4007092;0,3999085;3,606383;247562,4;270831,8
478,5;3,656247;-0,00847183;253,618;0,253618;0;0;0;0,4062497;0,4054267;3,656247;232756,6;254648,3
480;3,705992;-0,008571211;239,8557;0,2398558;0;0;0;0,4117768;0,4109314;3,705992;220126,3;240843,4
481,5;3,755976;-0,008663816;227,6023;0,2276023;0;0;0;0,4173307;0,4164622;3,755976;208880,8;228552,2
483;3,806199;-0,008545142;214,0892;0,2140892;0;0;0;0,422911;0,4220193;3,806199;196479,2;214994,6
484,5;3,856363;-0,008651464;205,2594;0,2052594;0;0;0;0,4284847;0,4275693;3,856363;188375,7;206138,9
486;3,906227;-0,008551606;197,5157;0,1975157;0;0;0;0,4340252;0,433086;3,906227;181269;198373
487,5;3,956032;-0,008675872;176,4016;0,1764016;0;0;0;0,4395591;0,4385958;3,956032;161891,6;177177
489;4,006075;-0,008543157;151,6355;0,1516355;0;0;0;0,4451195;0,4441318;4,006075;139162,6;152310,4
490,5;4,056358;-0,008717045;138,4134;0,1384134;0;0;0;0,4507065;0,4496938;4,056358;127028,2;139037,3
492;4,106402;-0,00860323;121,9606;0,1219606;0;0;0;0,4562669;0,4552291;4,106402;111928,7;122517,1
493,5;4,156207;-0,008714367;109,2684;0,1092684;0;0;0;0,4618008;0,4607377;4,156207;100280,5;109773
495;4,206011;-0,008696421;93,94545;0,09394545;0;0;0;0,4673346;0,466246;4,206011;86217,93;94384,49
496,5;4,256115;-0,008769774;87,42278;0,08742279;0;0;0;0,4729016;0,471787;4,256115;80231,79;87836,21
498;4,306278;-0,008721247;82,75374;0,08275375;0;0;0;0,4784754;0,4773343;4,306278;75946,8;83149,7
499,5;4,356262;-0,008805581;78,84792;0,07884792;0;0;0;0,4840291;0,4828615;4,356262;72362,26;79229,57
501;4,406067;-0,008715678;59,41942;0,05941942;0;0;0;0,489563;0,4883685;4,406067;54531,85;59710,32
502,5;4,45611;-0,008803404;54,01945;0,05401945;0;0;0;0,4951234;0,4939017;4,45611;49576,06;54286,91
504;4,506155;-0,008677564;51,24567;0,05124567;0;0;0;0,5006838;0,4994346;4,506155;47030,44;51502,25
505,5;4,556318;-0,008773817;48,49773;0,04849773;0;0;0;0,5062575;0,5049803;4,556318;44508,53;48743,26
507;4,606242;-0,008604782;46,1664;0,0461664;0;0;0;0,5118047;0,5104994;4,606242;42368,96;46402,68
508,5;4,656047;-0,008771167;42,45272;0,04245272;0;0;0;0,5173385;0,5160049;4,656047;38960,75;42672,35
510;4,706091;-0,007748754;39,62767;0,03962767;0;0;0;0,522899;0,5215366;4,706091;36368,08;39834,89
511,5;4,756134;-0,008700431;37,39789;0,03739789;0;0;0;0,5284594;0,5270679;4,756134;34321,71;37595,53
513;4,806298;-0,007793608;33,69454;0,03369454;0;0;0;0,5340331;0,5326122;4,806298;30922,98;33874,48
514,5;4,856103;-0,008778247;30,4259;0,0304259;0;0;0;0,539567;0,5381165;4,856103;27923,21;30590,07
516;4,906026;-0,00789848;28,84295;0,02884295;0;0;0;0,545114;0,5436337;4,906026;26470,46;29000,18
517,5;4,956011;-0,008865152;28,5584;0,0285584;0;0;0;0,5506679;0,5491572;4,956011;26209,31;28715,66
519;5,006234;-0,007982318;26,86914;0,02686914;0;0;0;0,5562482;0,5547068;5,006234;24659;27018,6
520,5;5,056338;-0,008970876;25,04308;0,02504308;0;0;0;0,5618153;0,560243;5,056338;22983,15;25183,78
522;5,106142;-0,008287608;21,49327;0,02149327;0;0;0;0,5673491;0,5657458;5,106142;19725,33;21615,21
522,626;5,127008;-0,008250684;20,0508;0,02005081;0;0;0;0,5696676;0,5680511;5,127008;18401,52;20165,03