File: scratch/src/apps/scratch/axel/tensile_tests/pullout154.raw
"Prüfungstyp";"Manuell"
"Methodenname:";"C:\INSTRON\USER\TEMPLATE\Zugversuch Textilbeton.mtM"
"Name:";"Zugversuche Carbon"
"Prüfer";""
"Firma:";""
"Abteilung:";""
"Prüfdatum:";"01.01.97"
"Temperatur:";""
"Feuchtigkeit:";""
"Anmerkung 1:";""
"Anmerkung 2:";""
"Anmerkung 3:";""
"Geometrie:";"Rectangular"
"Probe";1
"Probenname:";"V19-Z-3-1"
"Breite:";100;"mm"
"Dicke:";10;"mm"
"Länge:";900;"mm"
"Durchmesser:";1.000000;"mm"
"Innendurchmesser:";0.500000;"mm"
"Außendurchm.:";1.000000;"mm"
"Wandstärke:";0.500000;"mm"
"Querschnitt:";1000;"mm*mm"
"Lineare Dichte:";1.000000;"den"
"Schlittengewicht:";9.806650;"N"
"Lade-Spannweite:";0.000000;"mm"
"Unterstütz.-Spannweite:";1.000000;"mm"
"Spannweitenverhältnis:";"2"
"Vorrichtungstyp:";"3-point"
"Kommentar:";""
"Eingefügt"
"Endbreite:";100;"mm"
"Enddicke:";10;"mm"
"Endlänge:";900;"mm"
"Enddurchmesser:";1.000000;"mm"
"Endinnendurchmesser:";0.500000;"mm"
"Endaußendurchmesser:";1.000000;"mm"
"Endwandstärke:";0.500000;"mm"
"Endquerschnitt:";1000;"mm*mm"
"Lineare Enddichte:";1.000000;"den"
"Zeit sec";"Verformung mm";"Dehnung 1 %";"Kraft N";"Spannung MPa";"Anz. der Zykl. ";"Zyklenzahl gesamt ";"Wiederholungswert ";"Dehnung [Trav.] %";"Tatsächliche dehnung %";"Zähigkeit gf/tex";"Tatsächliche spannung Pa"
0;0;-0,008646476;-7,745742;-0,007745742;0;0;0;0;0;-7108,613;-7745,742
0,5;0,0009566319;-0,009418337;-6,844755;-0,006844755;0;0;0;0,0001062924;0,0001062924;-6281,737;-6844,763
1;0,003049264;-0,009323078;-6,62931;-0,00662931;0;0;0;0,0003388071;0,0003388066;-6084,013;-6629,332
1,5;0,004962528;-0,009516238;-3,871583;-0,003871583;0;0;0;0,000551392;0,0005513904;-3553,124;-3871,604
2;0,006636634;-0,009280807;-3,370018;-0,003370018;0;0;0;0,0007374038;0,000737401;-3092,816;-3370,043
2,5;0,008370529;-0,009459335;-0,7457091;-0,0007457091;0;0;0;0,0009300588;0,0009300544;-684,3705;-745,716
3;0,009984845;-0,009316023;0,04496069;4,496069e-005;0;0;0;0,001109427;0,001109421;41,26243;44,96119
3,5;0,01165895;-0,009421148;0,5870992;0,0005870992;0;0;0;0,001295439;0,001295431;538,8071;587,1068
4;0,01321348;-0,00932381;0,6553742;0,0006553743;0;0;0;0,001468164;0,001468153;601,4662;655,3839
4,5;0,01488758;-0,009391898;1,233535;0,001233535;0;0;0;0,001654176;0,001654162;1132,07;1233,555
5;0,01662148;-0,009302726;1,691443;0,001691443;0;0;0;0,001846831;0,001846814;1552,313;1691,474
5,5;0,01829558;-0,009409832;2,96596;0,00296596;0;0;0;0,002032843;0,002032822;2721,994;2966,021
6;0,02002948;-0,009281727;3,023615;0,003023615;0;0;0;0,002225498;0,002225473;2774,906;3023,682
6,5;0,02170358;-0,009454403;4,250951;0,004250951;0;0;0;0,002411509;0,00241148;3901,288;4251,054
7;0,02325811;-0,009283435;3,404536;0,003404536;0;0;0;0,002584235;0,002584201;3124,494;3404,624
7,5;0,02487243;-0,009409984;3,859654;0,003859654;0;0;0;0,002763603;0,002763565;3542,177;3859,761
8;0,02660632;-0,009252101;5,167012;0,005167012;0;0;0;0,002956258;0,002956214;4741,998;5167,165
8,5;0,02834022;-0,009360968;5,837234;0,005837234;0;0;0;0,003148913;0,003148863;5357,09;5837,418
9;0,03007412;-0,009205356;6,044604;0,006044604;0;0;0;0,003341568;0,003341513;5547,403;6044,806
9,5;0,03168843;-0,009319;6,865814;0,006865814;0;0;0;0,003520937;0,003520875;6301,064;6866,056
10;0,03324296;-0,009223256;6,330381;0,006330381;0;0;0;0,003693662;0,003693593;5809,673;6330,615
10,5;0,03485727;-0,009310431;6,343301;0,006343301;0;0;0;0,00387303;0,003872955;5821,53;6343,547
11;0,03659117;-0,009224154;7,37379;0,00737379;0;0;0;0,004065685;0,004065603;6767,256;7374,09
11,5;0,03832506;-0,009222957;6,757112;0,006757112;0;0;0;0,00425834;0,004258249;6201,303;6757,4
12;0,04005896;-0,009114568;8,928603;0,008928603;0;0;0;0,004450995;0,004450896;8194,177;8929
12,5;0,04167328;-0,009262626;8,195441;0,008195441;0;0;0;0,004630364;0,004630257;7521,321;8195,82
13;0,04328759;-0,009092381;8,193434;0,008193434;0;0;0;0,004809733;0,004809617;7519,48;8193,828
13,5;0,04484212;-0,009228414;8,707675;0,008707675;0;0;0;0,004982457;0,004982333;7991,422;8708,109
14;0,04651623;-0,009114601;8,352498;0,008352499;0;0;0;0,00516847;0,005168336;7665,46;8352,93
14,5;0,04830991;-0,009163049;9,050421;0,009050421;0;0;0;0,005367768;0,005367624;8305,975;9050,907
15;0,04998401;-0,009060414;9,561187;0,009561188;0;0;0;0,005553779;0,005553625;8774,729;9561,718
15,5;0,05165812;-0,009258451;10,24066;0,01024066;0;0;0;0,005739791;0,005739627;9398,31;10241,25
16;0,05333222;-0,009122104;10,67791;0,01067791;0;0;0;0,005925803;0,005925627;9799,598;10678,55
16,5;0,05482697;-0,009202963;10,43521;0,01043521;0;0;0;0,006091885;0,0060917;9576,854;10435,84
17;0,05656086;-0,009070208;10,7087;0,0107087;0;0;0;0,00628454;0,006284342;9827,85;10709,37
17,5;0,05829476;-0,009185813;10,9218;0,01092179;0;0;0;0,006477195;0,006476985;10023,42;10922,5
18;0,05996886;-0,009090084;11,13235;0,01113235;0;0;0;0,006663206;0,006662984;10216,65;11133,09
18,5;0,06170275;-0,009215404;11,9215;0,0119215;0;0;0;0,006855862;0,006855627;10940,89;11922,32
19;0,06337686;-0,009095598;12,41734;0,01241734;0;0;0;0,007041873;0,007041625;11395,94;12418,21
19,5;0,0648716;-0,009206472;11,40501;0,01140501;0;0;0;0,007207955;0,007207695;10466,88;11405,83
20;0,06654571;-0,009131635;12,80976;0,01280976;0;0;0;0,007393967;0,007393694;11756,09;12810,71
20,5;0,0682796;-0,009179516;12,81377;0,01281377;0;0;0;0,007586622;0,007586334;11759,77;12814,75
21;0,07001349;-0,009073872;13,52765;0,01352765;0;0;0;0,007779276;0,007778974;12414,93;13528,7
21,5;0,0716876;-0,009257158;13,97636;0,01397636;0;0;0;0,007965289;0,007964972;12826,73;13977,47
22;0,07336171;-0,009185537;14,3402;0,0143402;0;0;0;0,008151301;0,008150969;13160,64;14341,37
22,5;0,07491623;-0,009221989;13,19607;0,01319607;0;0;0;0,008324025;0,008323678;12110,62;13197,16
23;0,07653055;-0,009199475;14,1016;0,0141016;0;0;0;0,008503394;0,008503033;12941,67;14102,8
23,5;0,07826444;-0,00931081;14,13156;0,01413156;0;0;0;0,008696049;0,008695671;12969,16;14132,79
24;0,07993855;-0,00906335;14,99647;0,01499647;0;0;0;0,008882062;0,008881667;13762,93;14997,8
24,5;0,08167244;-0,009254867;16,10057;0,01610057;0;0;0;0,009074715;0,009074304;14776,21;16102,03
25;0,08340634;-0,009202133;15,77608;0,01577608;0;0;0;0,009267371;0,009266941;14478,41;15777,54
25,5;0,08496087;-0,009233875;14,48321;0,01448321;0;0;0;0,009440097;0,009439651;13291,89;14484,58
26;0,08651539;-0,009263619;15,50802;0,01550802;0;0;0;0,009612821;0,009612359;14232,4;15509,51
26,5;0,0881895;-0,009410049;15,17937;0,01517937;0;0;0;0,009798833;0,009798353;13930,79;15180,86
27;0,0899234;-0,00914246;15,9095;0,0159095;0;0;0;0,009991488;0,00999099;14600,86;15911,09
27,5;0,09165729;-0,009306279;16,41811;0,01641811;0;0;0;0,01018414;0,01018362;15067,63;16419,78
28;0,09339118;-0,009289581;16,51991;0,01651991;0;0;0;0,0103768;0,01037626;15161,06;16521,63
28,5;0,0950055;-0,009349479;16,36995;0,01636995;0;0;0;0,01055617;0,01055561;15023,43;16371,68
29;0,09650024;-0,009324537;16,09905;0,01609905;0;0;0;0,01072225;0,01072167;14774,82;16100,78
29,5;0,09823414;-0,009476744;17,20991;0,01720991;0;0;0;0,0109149;0,01091431;15794,3;17211,79
30;0,09990823;-0,009279189;16,97381;0,01697381;0;0;0;0,01110092;0,0111003;15577,62;16975,69
30,5;0,1015823;-0,009401846;17,44361;0,01744361;0;0;0;0,01128693;0,01128629;16008,78;17445,58
31;0,103376;-0,00933303;18,40475;0,01840475;0;0;0;0,01148623;0,01148557;16890,86;18406,86
31,5;0,1049904;-0,009417695;17,87964;0,01787964;0;0;0;0,01166559;0,01166491;16408,94;17881,72
32;0,1066047;-0,009309198;17,97057;0,01797058;0;0;0;0,01184496;0,01184426;16492,4;17972,7
32,5;0,108219;-0,009485451;17,54012;0,01754012;0;0;0;0,01202433;0,01202361;16097,35;17542,23
33;0,1098931;-0,009296186;18,05436;0,01805436;0;0;0;0,01221034;0,0122096;16569,29;18056,57
33,5;0,111627;-0,009436384;17,86809;0,01786809;0;0;0;0,012403;0,01240223;16398,34;17870,3
34;0,1134207;-0,009350506;18,53919;0,01853919;0;0;0;0,0126023;0,0126015;17014,24;18541,53
34,5;0,1149752;-0,009436712;19,01261;0,01901262;0;0;0;0,01277502;0,01277421;17448,72;19015,04
35;0,1166493;-0,009316507;19,01663;0,01901663;0;0;0;0,01296103;0,01296019;17452,41;19019,09
35,5;0,1182038;-0,009456722;18,66042;0,01866042;0;0;0;0,01313376;0,0131329;17125,5;18662,87
36;0,1198779;-0,009303133;18,85585;0,01885585;0;0;0;0,01331977;0,01331888;17304,86;18858,36
36,5;0,1216716;-0,009394147;19,6614;0,0196614;0;0;0;0,01351907;0,01351815;18044,14;19664,06
37;0,1234055;-0,009318429;19,99313;0,01999313;0;0;0;0,01371172;0,01371078;18348,59;19995,87
37,5;0,1250198;-0,009362566;20,28082;0,02028082;0;0;0;0,01389109;0,01389013;18612,61;20283,64
38;0,1266939;-0,009239806;20,54849;0,02054849;0;0;0;0,0140771;0,01407611;18858,26;20551,38
38,5;0,1281887;-0,009369391;19,89569;0,01989569;0;0;0;0,01424319;0,01424217;18259,16;19898,52
39;0,1298628;-0,009245236;19,25767;0,01925767;0;0;0;0,0144292;0,01442816;17673,62;19260,45
39,5;0,1316565;-0,00927708;20,57653;0,02057653;0;0;0;0,0146285;0,01462743;18884;20579,54
40;0,1333306;-0,009163063;21,35878;0,02135878;0;0;0;0,01481451;0,01481341;19601,91;21361,95
40,5;0,1350047;-0,009260449;20,52866;0,02052866;0;0;0;0,01500052;0,01499939;18840,07;20531,74
41;0,1366788;-0,009132379;20,60575;0,02060575;0;0;0;0,01518653;0,01518538;18910,81;20608,88
41,5;0,1382333;-0,00922653;21,46508;0,02146509;0;0;0;0,01535926;0,01535808;19699,46;21468,38
42;0,1398476;-0,009135614;20,40841;0,02040841;0;0;0;0,01553862;0,01553742;18729,71;20411,58
42,5;0,1416413;-0,009300809;21,76227;0,02176226;0;0;0;0,01573792;0,01573668;19972,2;21765,69
43;0,1433154;-0,009057685;21,22859;0,02122859;0;0;0;0,01592393;0,01592267;19482,43;21231,97
43,5;0,1450493;-0,009085907;21,93611;0,02193611;0;0;0;0,01611659;0,01611529;20131,75;21939,65
44;0,1466636;-0,009000071;21,60012;0,02160012;0;0;0;0,01629596;0,01629463;19823,39;21603,64
44,5;0,1482779;-0,009134619;21,7999;0,0217999;0;0;0;0,01647533;0,01647397;20006,74;21803,49
45;0,1498922;-0,009012222;21,94233;0,02194232;0;0;0;0,01665469;0,01665331;20137,45;21945,98
45,5;0,1515664;-0,009032377;22,10026;0,02210026;0;0;0;0,01684071;0,01683929;20282,4;22103,99
46;0,1533002;-0,008920356;22,44971;0,02244971;0;0;0;0,01703336;0,01703191;20603,1;22453,54
46,5;0,1550342;-0,008982789;22,88731;0,02288731;0;0;0;0,01722602;0,01722453;21004,71;22891,25
47;0,1567082;-0,008856517;22,76892;0,02276892;0;0;0;0,01741203;0,01741051;20896,05;22772,88
47,5;0,1583226;-0,008916158;22,3233;0,0223233;0;0;0;0,0175914;0,01758985;20487,08;22327,22
48;0,1598173;-0,008868892;23,06669;0,02306669;0;0;0;0,01775748;0,0177559;21169,33;23070,78
48,5;0,1615512;-0,008952786;22,22301;0,02222301;0;0;0;0,01795013;0,01794852;20395,05;22227
49;0,1632851;-0,008854134;22,74851;0,02274851;0;0;0;0,01814279;0,01814114;20877,32;22752,64
49,5;0,1649592;-0,008898276;22,77435;0,02277435;0;0;0;0,0183288;0,01832712;20901,04;22778,53
50;0,1666931;-0,008790999;23,91247;0,02391247;0;0;0;0,01852146;0,01851974;21945,54;23916,89
50,5;0,1683672;-0,008935079;23,84194;0,02384194;0;0;0;0,01870747;0,01870572;21880,81;23846,4
51;0,1698619;-0,008800392;23,28805;0,02328805;0;0;0;0,01887355;0,01887177;21372,49;23292,45
51,5;0,1715361;-0,008734993;23,71924;0,02371924;0;0;0;0,01905956;0,01905775;21768,21;23723,76
52;0,1733297;-0,008797612;23,66697;0,02366697;0;0;0;0,01925886;0,01925701;21720,23;23671,53
52,5;0,1749441;-0,008797383;23,30964;0,02330964;0;0;0;0,01943823;0,01943634;21392,29;23314,17
53;0,1766779;-0,008747232;23,9107;0,02391071;0;0;0;0,01963088;0,01962896;21943,92;23915,4
53,5;0,1783521;-0,00885926;24,71478;0,02471478;0;0;0;0,01981689;0,01981493;22681,86;24719,68
54;0,1799066;-0,008757756;23,82246;0,02382246;0;0;0;0,01998962;0,01998762;21862,93;23827,22
54,5;0,1815807;-0,008781453;24,15341;0,02415341;0;0;0;0,02017563;0,0201736;22166,66;24158,28
55;0,1832548;-0,008669463;24,15664;0,02415664;0;0;0;0,02036164;0,02035957;22169,63;24161,56
55,5;0,1848691;-0,008759845;24,2652;0,0242652;0;0;0;0,02054101;0,0205389;22269,25;24270,18
56;0,1867226;-0,008688316;25,08293;0,02508293;0;0;0;0,02074695;0,0207448;23019,72;25088,13
56,5;0,1883369;-0,008832481;24,48965;0,02448964;0;0;0;0,02092632;0,02092413;22475,24;24494,77
57;0,1898316;-0,008709432;23,78541;0,02378541;0;0;0;0,0210924;0,02109018;21828,93;23790,43
57,5;0,1915057;-0,008784773;23,56972;0,02356972;0;0;0;0,02127842;0,02127615;21630,98;23574,73
58;0,1932396;-0,008715309;24,5196;0,0245196;0;0;0;0,02147107;0,02146877;22502,73;24524,86
58,5;0,194854;-0,008757233;24,81972;0,02481972;0;0;0;0,02165044;0,0216481;22778,16;24825,09
59;0,1967672;-0,008705318;25,68698;0,02568698;0;0;0;0,02186302;0,02186063;23574,09;25692,6
59,5;0,1983217;-0,008709859;25,18047;0,02518047;0;0;0;0,02203575;0,02203332;23109,24;25186,02
60;0,1999361;-0,008622544;25,26118;0,02526118;0;0;0;0,02221512;0,02221265;23183,31;25266,79
60,5;0,2015504;-0,008777817;24,45832;0,02445832;0;0;0;0,02239449;0,02239198;22446,49;24463,8
61;0,2032245;-0,008674524;25,17954;0,02517954;0;0;0;0,0225805;0,02257795;23108,39;25185,23
61,5;0,2049584;-0,00794608;25,55508;0,02555508;0;0;0;0,02277315;0,02277056;23453,04;25560,9
62;0,2066923;-0,008635554;25,68189;0,02568189;0;0;0;0,02296581;0,02296317;23569,42;25687,79
62,5;0,2083066;-0,008715548;25,76627;0,02576627;0;0;0;0,02314518;0,0231425;23646,85;25772,23
63;0,2099807;-0,008594308;25,81717;0,02581717;0;0;0;0,02333119;0,02332847;23693,57;25823,19
63,5;0,2115352;-0,008701564;25,08136;0,02508136;0;0;0;0,02350391;0,02350115;23018,29;25087,26
64;0,2132093;-0,008608275;26,26299;0,02626299;0;0;0;0,02368993;0,02368712;24102,71;26269,21
64,5;0,2149432;-0,007974366;26,13623;0,02613623;0;0;0;0,02388258;0,02387973;23986,38;26142,47
65;0,2166771;-0,008688298;25,48255;0,02548255;0;0;0;0,02407524;0,02407234;23386,47;25488,68
65,5;0,2183512;-0,008688665;26,80616;0,02680616;0;0;0;0,02426125;0,0242583;24601,21;26812,66
66;0,2200253;-0,008657274;26,41623;0,02641623;0;0;0;0,02444726;0,02444427;24243,35;26422,69
66,5;0,2215201;-0,008724382;25,68488;0,02568487;0;0;0;0,02461334;0,02461032;23572,16;25691,2
67;0,2231942;-0,00849446;26,71135;0,02671135;0;0;0;0,02479935;0,02479628;24514,2;26717,98
67,5;0,2249281;-0,008036915;25,86425;0,02586425;0;0;0;0,02499201;0,02498889;23736,78;25870,72
68;0,226662;-0,008668656;26,82842;0,02682842;0;0;0;0,02518466;0,02518149;24621,64;26835,18
68,5;0,2283361;-0,008669355;27,59188;0,02759188;0;0;0;0,02537067;0,02536746;25322,3;27598,88
69;0,2300102;-0,008666398;26,48073;0,02648073;0;0;0;0,02555669;0,02555342;24302,55;26487,5
69,5;0,2315647;-0,008756964;25,97873;0,02597873;0;0;0;0,02572941;0,0257261;23841,84;25985,41
70;0,233179;-0,008667614;26,1052;0,0261052;0;0;0;0,02590878;0,02590543;23957,9;26111,96
70,5;0,2349129;-0,00813528;26,62795;0,02662795;0;0;0;0,02610144;0,02609803;24437,66;26634,9
71;0,2366468;-0,008721474;26,82813;0,02682813;0;0;0;0,02629409;0,02629063;24621,37;26835,18
71,5;0,2383807;-0,008674911;27,39053;0,02739053;0;0;0;0,02648675;0,02648324;25137,51;27397,79
72;0,2400548;-0,008744383;27,46159;0,02746159;0;0;0;0,02667276;0,0266692;25202,73;27468,92
72,5;0,2416093;-0,008745943;25,88926;0,02588926;0;0;0;0,02684548;0,02684188;23759,73;25896,21
73;0,2431639;-0,008745406;26,02351;0,02602351;0;0;0;0,02701821;0,02701456;23882,94;26030,54
73,5;0,2448978;-0,008379184;24,3227;0,0243227;0;0;0;0,02721086;0,02720716;22322,03;24329,32
74;0,2466317;-0,008771673;25,20612;0,02520612;0;0;0;0,02740352;0,02739976;23132,78;25213,03
74,5;0,2484253;-0,008753173;25,99684;0,02599684;0;0;0;0,02760281;0,027599;23858,46;26004,01
75;0,2499799;-0,008823939;25,57833;0,02557833;0;0;0;0,02777554;0,02777168;23474,37;25585,43
75,5;0,251654;-0,008791937;25,4155;0,0254155;0;0;0;0,02796155;0,02795764;23324,93;25422,6
76;0,2531487;-0,008906674;24,92827;0,02492827;0;0;0;0,02812763;0,02812368;22877,79;24935,28
76,5;0,2548826;-0,008592645;24,70925;0,02470925;0;0;0;0,02832029;0,02831628;22676,78;24716,25
77;0,2566165;-0,008845011;26,0146;0,0260146;0;0;0;0,02851294;0,02850888;23874,76;26022,02
77,5;0,2583504;-0,008763833;25,2555;0,0252555;0;0;0;0,0287056;0,02870148;23178,1;25262,75
78;0,2600245;-0,00895628;26,15532;0,02615532;0;0;0;0,02889161;0,02888744;24003,9;26162,87
78,5;0,2616986;-0,008819764;25,81213;0,02581213;0;0;0;0,02907762;0,02907339;23688,94;25819,63
79;0,2631933;-0,008893773;25,04994;0,02504994;0;0;0;0,0292437;0,02923943;22989,45;25057,27
79,5;0,2648675;-0,008808673;24,80381;0,02480381;0;0;0;0,02942972;0,02942539;22763,56;24811,11
80;0,2666611;-0,008866818;25,66721;0,02566721;0;0;0;0,02962901;0,02962462;23555,94;25674,81
80,5;0,2683352;-0,008971452;25,56105;0,02556105;0;0;0;0,02981502;0,02981058;23458,52;25568,67
81;0,2700691;-0,009011378;26,32035;0,02632035;0;0;0;0,03000768;0,03000318;24155,36;26328,25
81,5;0,2716834;-0,008916783;25,4595;0,02545949;0;0;0;0,03018705;0,03018249;23365,31;25467,18
82;0,2731782;-0,009024105;25,20979;0,02520979;0;0;0;0,03035313;0,03034853;23136,15;25217,44
82,5;0,2748523;-0,008976535;24,85721;0,02485721;0;0;0;0,03053914;0,03053448;22812,57;24864,8
83;0,2765862;-0,008960174;25,63319;0,02563319;0;0;0;0,0307318;0,03072708;23524,72;25641,07
83,5;0,2783201;-0,00911189;24,91344;0,02491344;0;0;0;0,03092445;0,03091967;22864,18;24921,14
84;0,280054;-0,00904146;26,89841;0,02689841;0;0;0;0,03111711;0,03111227;24685,87;26906,78
84,5;0,2816683;-0,009097732;25,12174;0,02512174;0;0;0;0,03129648;0,03129158;23055,34;25129,6
85;0,2832228;-0,009052968;25,65321;0,02565321;0;0;0;0,0314692;0,03146425;23543,1;25661,28
85,5;0,2848969;-0,009092216;25,20646;0,02520646;0;0;0;0,03165521;0,0316502;23133,09;25214,44
86;0,286571;-0,009127036;26,46781;0,02646781;0;0;0;0,03184123;0,03183616;24290,69;26476,24
86,5;0,2883049;-0,009186026;26,27743;0,02627743;0;0;0;0,03203388;0,03202875;24115,97;26285,84
87;0,2900388;-0,009081978;26,36337;0,02636337;0;0;0;0,03222654;0,03222135;24194,84;26371,87
87,5;0,2917129;-0,009231758;26,74106;0,02674106;0;0;0;0,03241255;0,03240729;24541,46;26749,73
88;0,2932674;-0,00908927;26,05816;0,02605816;0;0;0;0,03258527;0,03257996;23914,74;26066,66
88,5;0,2948817;-0,009237968;26,17984;0,02617984;0;0;0;0,03276464;0,03275927;24026,4;26188,41
89;0,2965559;-0,009209887;25,76044;0,02576044;0;0;0;0,03295065;0,03294522;23641,51;25768,93
89,5;0,2982898;-0,009215189;27,38706;0,02738706;0;0;0;0,03314331;0,03313782;25134,32;27396,13
90;0,2999639;-0,009135773;26,31565;0,02631565;0;0;0;0,03332932;0,03332377;24151,05;26324,42
90,5;0,3017576;-0,009293229;26,62418;0,02662418;0;0;0;0,03352862;0,033523;24434,2;26633,11
91;0,3033121;-0,009105579;27,06354;0,02706354;0;0;0;0,03370135;0,03369567;24837,42;27072,67
91,5;0,3048666;-0,009317969;26,64435;0,02664435;0;0;0;0,03387407;0,03386833;24452,71;26653,38
92;0,3065407;-0,009201075;26,35148;0,02635148;0;0;0;0,03406008;0,03405428;24183,92;26360,45
92,5;0,3082746;-0,009268011;26,51803;0,02651803;0;0;0;0,03425273;0,03424687;24336,78;26527,11
93;0,3099487;-0,009223825;25,88911;0,02588911;0;0;0;0,03443874;0,03443282;23759,6;25898,03
93,5;0,3117424;-0,00930809;28,1094;0,0281094;0;0;0;0,03463805;0,03463205;25797,25;28119,14
94;0,3132969;-0,009205383;26,96218;0,02696218;0;0;0;0,03481077;0,03480471;24744,4;26971,57
94,5;0,3149112;-0,00937032;27,48455;0,02748455;0;0;0;0,03499014;0,03498402;25223,79;27494,17
95;0,3165256;-0,009257814;26,56408;0,02656408;0;0;0;0,03516951;0,03516333;24379,04;26573,43
95,5;0,3182595;-0,009370203;26,52116;0,02652116;0;0;0;0,03536216;0,03535591;24339,65;26530,54
96;0,3199336;-0,009300608;25,91143;0,02591143;0;0;0;0,03554818;0,03554186;23780,08;25920,64
96,5;0,3217272;-0,009337041;27,17939;0,02717939;0;0;0;0,03574747;0,03574108;24943,74;27189,11
97;0,3233416;-0,009270097;26,95949;0,02695949;0;0;0;0,03592684;0,03592039;24741,93;26969,18
97,5;0,3249559;-0,009392729;27,4199;0,0274199;0;0;0;0,03610621;0,03609969;25164,46;27429,8
98;0,3265104;-0,00928165;26,88309;0,02688309;0;0;0;0,03627893;0,03627235;24671,81;26892,84
98,5;0,3281845;-0,009424818;25,89601;0,02589601;0;0;0;0,03646494;0,0364583;23765,93;25905,46
99;0,3903058;-0,009338055;27,71404;0,02771404;0;0;0;0,04336731;0,04335791;25434,41;27726,06
99,5;0,5653695;-0,009390666;28,88681;0,02888681;0;0;0;0,06281883;0,06279911;26510,71;28904,96
100;0,7320625;-0,009367366;28,42283;0,02842283;0;0;0;0,08134028;0,08130722;26084,9;28445,95
100,5;0,898636;-0,009364659;26,65712;0,02665712;0;0;0;0,09984845;0,09979863;24464,43;26683,74
101;1,06521;-0,009282026;23,27592;0,02327592;0;0;0;0,1183566;0,1182866;21361,35;23303,47
101,5;1,231962;-0,009437767;22,17803;0,02217803;0;0;0;0,1368847;0,1367911;20353,77;22208,39
102;1,398536;-0,009293032;20,19747;0,02019747;0;0;0;0,1553929;0,1552723;18536,12;20228,85
102,5;1,565229;-0,009453219;19,1288;0,0191288;0;0;0;0,1739143;0,1737633;17555,36;19162,07
103;1,731922;-0,009342658;18,87797;0,01887797;0;0;0;0,1924358;0,1922509;17325,16;18914,3
103,5;1,898615;-0,009382199;17,67941;0,01767941;0;0;0;0,2109573;0,2107351;16225,19;17716,71
104;2,065189;-0,009380091;17,06993;0,01706993;0;0;0;0,2294654;0,2292025;15665,84;17109,1
104,5;2,232001;-0,009463294;14,1989;0,0141989;0;0;0;0,2480001;0,2476931;13030,96;14234,12
105;2,398635;-0,00927238;14,81465;0,01481465;0;0;0;0,266515;0,2661605;13596,07;14854,13
105,5;2,565208;-0,009486842;14,91307;0,01491307;0;0;0;0,2850232;0,2846177;13686,39;14955,58
106;2,731961;-0,009330151;15,38713;0,01538713;0;0;0;0,3035512;0,3030914;14121,46;15433,84
106,5;2,898595;-0,009417026;14,24779;0,01424779;0;0;0;0,3220661;0,3215486;13075,84;14293,68
107;3,065287;-0,00932997;14,38939;0,01438939;0;0;0;0,3405875;0,3400088;13205,78;14438,39
107,5;3,231802;-0,009483413;13,53152;0,01353152;0;0;0;0,359089;0,3584459;12418,48;13580,11
108;3,398495;-0,009318772;13,09289;0,01309289;0;0;0;0,3776105;0,3768993;12015,93;13142,33
108,5;3,565247;-0,009472073;12,94068;0,01294068;0;0;0;0,3961386;0,395356;11876,24;12991,95
109;3,73194;-0,009348769;12,22979;0,01222979;0;0;0;0,4146601;0,4138027;11223,82;12280,5
109,5;3,898454;-0,009418332;12,87559;0,01287559;0;0;0;0,4331616;0,4322261;11816,5;12931,36
110;4,065267;-0,009356766;13,79287;0,01379287;0;0;0;0,4516963;0,4506792;12658,33;13855,17
110,5;4,23196;-0,009427041;12,48752;0,01248752;0;0;0;0,4702178;0,4691157;11460,35;12546,24
111;4,398593;-0,009333312;12,06118;0,01206118;0;0;0;0,4887326;0,4875422;11069,08;12120,13
111,5;4,565226;-0,009473882;11,78167;0,01178167;0;0;0;0,5072473;0,5059652;10812,56;11841,43
112;4,73198;-0,009318182;11,37882;0,01137882;0;0;0;0,5257756;0,5243982;10442,85;11438,65
112,5;4,898613;-0,009421951;11,04763;0,01104763;0;0;0;0,5442903;0,5428144;10138,9;11107,76
113;5,065186;-0,009312417;10,98366;0,01098366;0;0;0;0,5627984;0,5612207;10080,19;11045,47
113,5;5,231819;-0,009367112;10,66176;0,01066176;0;0;0;0,5813133;0,5796302;9784,775;10723,74
114;5,398572;-0,009243415;11,14341;0,01114341;0;0;0;0,5998414;0,5980495;10226,8;11210,25
114,5;5,565266;-0,009376383;10,34187;0,01034187;0;0;0;0,6183628;0,6164588;9491,198;10405,82
115;5,731959;-0,009192836;11,00505;0,01100505;0;0;0;0,6368843;0,6348648;10099,82;11075,14
115,5;5,898652;-0,009319242;10,18232;0,01018232;0;0;0;0,6554058;0,6532673;9344,77;10249,06
116;6,065285;-0,009260511;11,07112;0,01107112;0;0;0;0,6739206;0,6716599;10160,46;11145,73
116,5;6,231859;-0,009250366;10,47568;0,01047568;0;0;0;0,6924287;0,6900425;9614,001;10548,22
117;6,398611;-0,009216941;10,82274;0,01082273;0;0;0;0,7109568;0,7084414;9932,507;10899,68
117,5;6,565245;-0,009349509;11,14688;0,01114688;0;0;0;0,7294716;0,7268238;10229,99;11228,2
118;6,731878;-0,00913919;11,5995;0,0115995;0;0;0;0,7479865;0,7452029;10645,38;11686,27
118,5;6,898571;-0,009352042;11,04308;0,01104308;0;0;0;0,7665079;0,7635852;10134,72;11127,72
119;7,065264;-0,009155792;10,8708;0,0108708;0;0;0;0,7850294;0,7819641;9976,614;10956,14
119,5;7,231838;-0,009213816;10,20351;0,01020351;0;0;0;0,8035375;0,8003264;9364,218;10285,5
120;7,398412;-0,009315393;10,02727;0,01002727;0;0;0;0,8220457;0,8186853;9202,473;10109,7
120,5;7,565284;-0,009189404;10,29092;0,01029092;0;0;0;0,8405871;0,8370738;9444,439;10377,43
121;7,731977;-0,009151801;10,89948;0,01089948;0;0;0;0,8591086;0,8554392;10002,94;10993,12
121,5;7,898551;-0,009364511;10,86644;0,01086644;0;0;0;0,8776168;0,8737881;9972,617;10961,81
122;8,065065;-0,009091779;10,59804;0,01059804;0;0;0;0,8961183;0,892127;9726,293;10693,01
122,5;8,231936;-0,009362093;10,43951;0,01043951;0;0;0;0,9146596;0,9105019;9580,807;10535
123;8,39869;-0,009158273;10,56495;0,01056495;0;0;0;0,9331877;0,9288604;9695,93;10663,54
123,5;8,565203;-0,00915771;9,860962;0,009860962;0;0;0;0,9516892;0,9471892;9049,845;9954,808
124;8,731837;-0,00928269;9,228377;0,009228378;0;0;0;0,9702041;0,9655278;8469,293;9317,911
124,5;8,89859;-0,009139723;9,865905;0,009865904;0;0;0;0,9887322;0,9838762;9054,381;9963,452
125;9,065283;-0,009127233;10,09403;0,01009403;0;0;0;1,007254;1,002215;9263,738;10195,7
125,5;9,231797;-0,009311431;10,10856;0,01010856;0;0;0;1,025755;1,02053;9277,079;10212,25
126;9,398489;-0,008972637;10,17571;0,01017571;0;0;0;1,044276;1,038862;9338,705;10281,98
126,5;9,565362;-0,009261817;11,54361;0,01154361;0;0;0;1,062818;1,05721;10594,09;11666,3
127;9,732055;-0,009123557;12,48977;0,01248977;0;0;0;1,081339;1,075535;11462,42;12624,83
127,5;9,898627;-0,009086411;12,36717;0,01236717;0;0;0;1,099847;1,093843;11349,9;12503,19
128;10,0652;-0,009219148;11,01694;0,01101694;0;0;0;1,118356;1,112148;10110,74;11140,15
128,5;10,2319;-0,009141906;10,9817;0,0109817;0;0;0;1,136877;1,130463;10078,4;11106,55
129;10,39853;-0,00904473;10,08404;0,01008404;0;0;0;1,155392;1,148768;9254,576;10200,55
129,5;10,56534;-0,009228358;9,209632;0,009209632;0;0;0;1,173927;1,16709;8452,09;9317,746
130;10,73197;-0,008936028;9,47818;0,009478181;0;0;0;1,192442;1,185388;8698,549;9591,202
130,5;10,89855;-0,009173733;9,646005;0,009646006;0;0;0;1,21095;1,203676;8852,569;9762,814
131;11,06518;-0,009042275;10,41235;0,01041235;0;0;0;1,229465;1,221968;9555,878;10540,37
131,5;11,23199;-0,009057911;10,22847;0,01022847;0;0;0;1,247999;1,240276;9387,126;10356,12
132;11,39863;-0,009048386;10,03975;0,01003975;0;0;0;1,266514;1,258561;9213,926;10166,9
132,5;11,56514;-0,009099718;9,279375;0,009279375;0;0;0;1,285016;1,276829;8516,097;9398,617
133;11,73189;-0,009002815;9,353915;0,009353915;0;0;0;1,303544;1,295121;8584,505;9475,847
133,5;11,89865;-0,009137148;9,481411;0,009481411;0;0;0;1,322072;1,313409;8701,514;9606,762
134;12,06522;-0,008907847;9,495066;0,009495066;0;0;0;1,34058;1,331674;8714,045;9622,355
134,5;12,23179;-0,009112183;9,392091;0,00939209;0;0;0;1,359088;1,349935;8619,54;9519,737
135;12,39849;-0,008993913;9,496828;0,009496828;0;0;0;1,37761;1,368207;8715,662;9627,657
135,5;12,5653;-0,009016991;8,81951;0,00881951;0;0;0;1,396144;1,386488;8094,058;8942,643
136;12,73193;-0,008994353;9,12594;0,00912594;0;0;0;1,414659;1,404746;8375,282;9255,041
136,5;12,89845;-0,009105374;8,930903;0,008930903;0;0;0;1,433161;1,422988;8196,288;9058,897
137;13,0652;-0,008924674;9,294058;0,009294058;0;0;0;1,451689;1,441253;8529,571;9428,979
137,5;13,23201;-0,009083244;9,681538;0,009681538;0;0;0;1,470224;1,459521;8885,179;9823,878
138;13,39853;-0,008900438;8,644784;0,008644784;0;0;0;1,488725;1,477752;7933,704;8773,481
138,5;13,56522;-0,009032078;8,804386;0,008804386;0;0;0;1,507247;1,496001;8080,178;8937,09
139;13,73197;-0,008901482;9,856753;0,009856753;0;0;0;1,525775;1,514252;9045,981;10007,14
139,5;13,89867;-0,008971507;9,658094;0,009658094;0;0;0;1,544296;1,532493;8863,663;9807,243
140;14,0653;-0,008889755;10,01112;0,01001112;0;0;0;1,562811;1,550725;9187,649;10167,57
140,5;14,23187;-0,009037456;8,861502;0,008861503;0;0;0;1,581319;1,568947;8132,596;9001,631
141;14,39868;-0,008816322;9,897228;0,009897228;0;0;0;1,599854;1,587191;9083,128;10055,57
141,5;14,56526;-0,009021498;10,77565;0,01077565;0;0;0;1,618362;1,605406;9889,297;10950,04
142;14,73195;-0,008857099;9,401732;0,009401732;0;0;0;1,636883;1,623631;8628,389;9555,627
142,5;14,89858;-0,008944703;10,13749;0,01013749;0;0;0;1,655398;1,641846;9303,625;10305,3
143;15,06528;-0,00887468;9,178847;0,009178847;0;0;0;1,67392;1,660064;8423,837;9332,493
143,5;15,23191;-0,00892994;8,841876;0,008841876;0;0;0;1,692435;1,678273;8114,584;8991,519
144;15,3986;-0,008807187;8,396351;0,008396351;0;0;0;1,710956;1,696484;7705,706;8540,009
144,5;15,56524;-0,008995444;9,879609;0,009879609;0;0;0;1,729471;1,714686;9066,958;10050,47
145;15,73187;-0,008800668;8,299395;0,008299395;0;0;0;1,747985;1,732884;7616,725;8444,467
145,5;15,89856;-0,008975121;8,960465;0,008960465;0;0;0;1,766507;1,751086;8223,418;9118,752
146;16,06526;-0,008826164;8,263178;0,008263178;0;0;0;1,785029;1,769284;7583,487;8410,678
146,5;16,23189;-0,008920188;9,169646;0,009169646;0;0;0;1,803543;1,787472;8415,393;9335,024
147;16,3984;-0,00813759;8,677331;0,008677331;0;0;0;1,822045;1,805645;7963,574;8835,436
147,5;16,56522;-0,00894678;8,862579;0,008862579;0;0;0;1,84058;1,823846;8133,584;9025,702
148;16,73191;-0,008804495;8,897475;0,008897475;0;0;0;1,859101;1,842031;8165,61;9062,888
148,5;16,89854;-0,009025532;8,856266;0,008856266;0;0;0;1,877616;1,860206;8127,79;9022,552
149;17,06518;-0,008830447;7,990665;0,007990665;0;0;0;1,896131;1,878378;7333,389;8142,178
149,5;17,23193;-0,009013125;7,828126;0,007828126;0;0;0;1,914659;1,89656;7184,22;7978,008
150;17,39868;-0,008169172;8,067798;0,008067798;0;0;0;1,933187;1,914738;7404,178;8223,764
150,5;17,5652;-0,009006004;7,359646;0,007359646;0;0;0;1,951689;1,932887;6754,275;7503,283
151;17,73189;-0,008846419;7,54646;0,00754646;0;0;0;1,97021;1,951052;6925,723;7695,141
151,5;17,89864;-0,009008662;8,253438;0,008253438;0;0;0;1,988738;1,969221;7574,548;8417,577
152;18,06534;-0,008768329;7,799984;0,007799984;0;0;0;2,00726;1,98738;7158,393;7956,55
152,5;18,23191;-0,009027075;7,339482;0,007339482;0;0;0;2,025768;2,005522;6735,77;7488,163
153;18,3986;-0,008253287;7,073478;0,007073478;0;0;0;2,044289;2,023674;6491,646;7218,08
153,5;18,56523;-0,008991607;6,596042;0,006596042;0;0;0;2,062804;2,041816;6053,482;6732,105
154;18,73187;-0,008826944;6,171121;0,006171121;0;0;0;2,081319;2,059955;5663,513;6299,562
154,5;18,89868;-0,009067465;7,30855;0,00730855;0;0;0;2,099854;2,07811;6707,382;7462,018
155;19,06525;-0,008820241;6,390041;0,006390041;0;0;0;2,118361;2,096236;5864,426;6525,406
155,5;19,23189;-0,009099186;6,826122;0,006826121;0;0;0;2,136876;2,114365;6264,636;6971,987
156;19,39858;-0,008405592;6,17533;0,00617533;0;0;0;2,155398;2,132498;5667,376;6308,433
156,5;19,56533;-0,009132909;6,635979;0,006635979;0;0;0;2,173926;2,150633;6090,134;6780,24
157;19,73191;-0,008880877;6,716196;0,006716196;0;0;0;2,192434;2,168746;6163,753;6863,445
157,5;19,89848;-0,009125918;6,417646;0,006417646;0;0;0;2,210942;2,186855;5889,76;6559,536
158;20,06523;-0,008882611;6,472412;0,006472412;0;0;0;2,22947;2,204981;5940,021;6616,713
158,5;20,23187;-0,009192122;5,750605;0,005750605;0;0;0;2,247985;2,22309;5277,587;5879,878
159;20,39856;-0,008607683;5,996591;0,005996591;0;0;0;2,266507;2,241203;5503,339;6132,505
159,5;20,56513;-0,009214464;6,338945;0,006338945;0;0;0;2,285015;2,259299;5817,533;6483,791
160;20,73195;-0,008875511;6,60583;0,00660583;0;0;0;2,30355;2,277418;6062,465;6757,999
160,5;20,89864;-0,009213661;7,171021;0,007171021;0;0;0;2,322071;2,295521;6581,166;7337,537
161;21,06527;-0,008952635;6,525956;0,006525956;0;0;0;2,340586;2,313614;5989,161;6678,701
161,5;21,23185;-0,00926166;5,743655;0,005743655;0;0;0;2,359094;2,331698;5271,209;5879,154
162;21,3986;-0,008804187;6,702737;0,006702736;0;0;0;2,377622;2,349797;6151,4;6862,102
162,5;21,56529;-0,009243878;6,783884;0,006783884;0;0;0;2,396143;2,367886;6225,873;6946,435
163;21,73193;-0,009046624;5,959542;0,005959542;0;0;0;2,414659;2,385967;5469,337;6103,444
163,5;21,8985;-0,009304936;6,310119;0,006310119;0;0;0;2,433166;2,404036;5791,077;6463,654
164;22,06525;-0,00903371;6,476376;0,006476376;0;0;0;2,451694;2,422123;5943,66;6635,157
164,5;22,23195;-0,009285209;6,533248;0,006533248;0;0;0;2,470216;2,4402;5995,853;6694,634
165;22,39852;-0,009013941;5,928512;0,005928512;0;0;0;2,488724;2,45826;5440,86;6076,056
165,5;22,56521;-0,009298854;6,203912;0,006203912;0;0;0;2,507246;2,47633;5693,607;6359,46
166;22,73191;-0,009077783;5,844967;0,005844967;0;0;0;2,525767;2,494397;5364,187;5992,597
166,5;22,8986;-0,009327111;6,362928;0,006362928;0;0;0;2,544289;2,51246;5839,542;6524,819
167;23,06541;-0,009117516;6,527326;0,006527327;0;0;0;2,562823;2,530533;5990,418;6694,61
167,5;23,23187;-0,009359297;6,182573;0,006182573;0;0;0;2,581318;2,548565;5674,023;6342,165
168;23,39862;-0,00913679;5,986558;0,005986558;0;0;0;2,599846;2,566625;5494,131;6142,2
168,5;23,56525;-0,00933678;6,521893;0,006521893;0;0;0;2,618361;2,584669;5985,432;6692,66
169;23,73194;-0,009322426;6,73592;0,00673592;0;0;0;2,636883;2,602716;6181,854;6913,538
169,5;23,89858;-0,009398445;6,724516;0,006724516;0;0;0;2,655397;2,620754;6171,389;6903,079
170;24,06515;-0,009239829;6,352698;0,006352698;0;0;0;2,673906;2,638781;5830,154;6522,563
170,5;24,23184;-0,009378283;5,854462;0,005854462;0;0;0;2,692427;2,656819;5372,9;6012,089
171;24,39854;-0,009345351;5,799793;0,005799793;0;0;0;2,710948;2,674853;5322,729;5957,022
171,5;24,56529;-0,009330712;6,578618;0,006578618;0;0;0;2,729477;2,692891;6037,491;6758,18
172;24,7318;-0,009318027;6,49659;0,00649659;0;0;0;2,747978;2,710899;5962,21;6675,115
172,5;24,89862;-0,009407129;6,799497;0,006799497;0;0;0;2,766513;2,728936;6240,201;6987,606
173;25,06531;-0,009226425;6,14386;0,00614386;0;0;0;2,785034;2,746958;5638,494;6314,969
173,5;25,232;-0,009397582;6,468937;0,006468938;0;0;0;2,803556;2,764976;5936,833;6650,298
174;25,39846;-0,009303069;5,652231;0,005652231;0;0;0;2,822051;2,782965;5187,304;5811,739
174,5;25,56527;-0,009340863;6,332926;0,006332926;0;0;0;2,840585;2,800989;5812,008;6512,818
175;25,73196;-0,009311719;7,157562;0,007157562;0;0;0;2,859107;2,818997;6568,813;7362,204
175,5;25,8986;-0,009342805;5,533838;0,005533838;0;0;0;2,877622;2,836996;5078,65;5693,081
176;26,06523;-0,009251811;6,113809;0,006113809;0;0;0;2,896137;2,854991;5610,915;6290,873
176,352;26,18259;-0,00825521;6,715462;0,006715462;0;0;0;2,909177;2,867664;6163,079;6910,827