File: scratch/src/apps/scratch/axel/tensile_tests/pullout304.raw
"Prüfungstyp";"Manuell"
"Methodenname:";"C:\INSTRON\USER\TEMPLATE\Zugversuch Textilbeton.mtM"
"Name:";"Zugversuche Carbon"
"Prüfer";""
"Firma:";""
"Abteilung:";""
"Prüfdatum:";"01.01.97"
"Temperatur:";""
"Feuchtigkeit:";""
"Anmerkung 1:";""
"Anmerkung 2:";""
"Anmerkung 3:";""
"Geometrie:";"Rectangular"
"Probe";1
"Probenname:";"V19-Z-3-1"
"Breite:";100;"mm"
"Dicke:";10;"mm"
"Länge:";900;"mm"
"Durchmesser:";1.000000;"mm"
"Innendurchmesser:";0.500000;"mm"
"Außendurchm.:";1.000000;"mm"
"Wandstärke:";0.500000;"mm"
"Querschnitt:";1000;"mm*mm"
"Lineare Dichte:";1.000000;"den"
"Schlittengewicht:";9.806650;"N"
"Lade-Spannweite:";0.000000;"mm"
"Unterstütz.-Spannweite:";1.000000;"mm"
"Spannweitenverhältnis:";"2"
"Vorrichtungstyp:";"3-point"
"Kommentar:";""
"Eingefügt"
"Endbreite:";100;"mm"
"Enddicke:";10;"mm"
"Endlänge:";900;"mm"
"Enddurchmesser:";1.000000;"mm"
"Endinnendurchmesser:";0.500000;"mm"
"Endaußendurchmesser:";1.000000;"mm"
"Endwandstärke:";0.500000;"mm"
"Endquerschnitt:";1000;"mm*mm"
"Lineare Enddichte:";1.000000;"den"
"Zeit sec";"Verformung mm";"Dehnung 1 %";"Kraft N";"Spannung MPa";"Anz. der Zykl. ";"Zyklenzahl gesamt ";"Wiederholungswert ";"Dehnung [Trav.] %";"Tatsächliche dehnung %";"Zähigkeit gf/tex";"Tatsächliche spannung Pa"
0;0;-0,008381664;-45,13344;-0,04513344;0;0;0;0;0;-41420,97;-45133,44
0,5;0,001255579;-0,00894487;-42,06664;-0,04206664;0;0;0;0,0001395088;0,0001395087;-38606,43;-42066,7
1;0,003228633;-0,009228823;-36,10899;-0,03610899;0;0;0;0,000358737;0,0003587363;-33138,83;-36109,12
1,5;0,005141897;-0,009106686;-27,87712;-0,02787712;0;0;0;0,0005713218;0,0005713202;-25584,07;-27877,28
2;0,006756212;-0,009071043;-24,24454;-0,02424454;0;0;0;0,0007506903;0,0007506875;-22250,29;-24244,72
2,5;0,008310739;-0,009409601;-21,53448;-0,02153448;0;0;0;0,0009234154;0,0009234112;-19763,15;-21534,68
3;0,009984845;-0,008978227;-18,38644;-0,01838644;0;0;0;0,001109427;0,001109421;-16874,05;-18386,64
3,5;0,01165895;-0,008497675;-15,02525;-0,01502525;0;0;0;0,001295439;0,001295431;-13789,34;-15025,44
4;0,01333306;-0,009147738;-13,42467;-0,01342467;0;0;0;0,001481451;0,00148144;-12320,42;-13424,87
4,5;0,01512674;-0,009061935;-10,08463;-0,01008463;0;0;0;0,001680749;0,001680735;-9255,112;-10084,8
5;0,01674106;-0,009172756;-9,905937;-0,009905937;0;0;0;0,001860118;0,0018601;-9091,12;-9906,121
5,5;0,01835537;-0,009244064;-7,657606;-0,007657606;0;0;0;0,002039486;0,002039465;-7027,727;-7657,763
6;0,01996969;-0,009012832;-6,505495;-0,006505495;0;0;0;0,002218854;0,00221883;-5970,383;-6505,639
6,5;0,0216438;-0,009236949;-4,274245;-0,004274244;0;0;0;0,002404866;0,002404837;-3922,665;-4274,347
7;0,02337769;-0,009142443;-2,227998;-0,002227998;0;0;0;0,002597521;0,002597487;-2044,733;-2228,056
7,5;0,02517138;-0,009176005;0,3669938;0,0003669938;0;0;0;0,00279682;0,002796781;336,8066;367,0041
8;0,0267259;-0,009297059;2,229754;0,002229754;0;0;0;0,002969545;0,002969501;2046,344;2229,82
8,5;0,02840001;-0,009206593;2,99233;0,00299233;0;0;0;0,003155557;0,003155507;2746,195;2992,425
9;0,02995454;-0,009092884;4,251088;0,004251088;0;0;0;0,003328282;0,003328226;3901,413;4251,23
9,5;0,03162864;-0,009158651;4,989193;0,004989193;0;0;0;0,003514293;0,003514231;4578,805;4989,369
10;0,03342233;-0,009082307;8,301539;0,008301538;0;0;0;0,003713592;0,003713523;7618,692;8301,847
10,5;0,03509643;-0,009310358;9,626076;0,009626076;0;0;0;0,003899603;0,003899527;8834,279;9626,451
11;0,03677054;-0,009274188;11,03058;0,01103058;0;0;0;0,004085615;0,004085532;10123,26;11031,04
11,5;0,03844464;-0,009200589;11,83486;0,01183486;0;0;0;0,004271627;0,004271536;10861,38;11835,37
12;0,03999917;-0,00924237;13,21911;0,01321911;0;0;0;0,004444352;0,004444254;12131,76;13219,69
12,5;0,04161348;-0,009130987;13,393;0,013393;0;0;0;0,00462372;0,004623614;12291,35;13393,62
13;0,04340717;-0,009081857;15,27343;0,01527343;0;0;0;0,004823019;0,004822902;14017,11;15274,17
13,5;0,04508128;-0,009362805;16,33798;0,01633798;0;0;0;0,005009031;0,005008905;14994,09;16338,8
14;0,04681517;-0,009281973;18,12028;0,01812028;0;0;0;0,005201686;0,00520155;16629,79;18121,22
14,5;0,04842949;-0,009184123;18,79148;0,01879148;0;0;0;0,005381055;0,00538091;17245,78;18792,49
15;0,04998401;-0,009303808;18,99582;0,01899582;0;0;0;0,005553779;0,005553625;17433,31;18996,87
15,5;0,05159833;-0,008755267;19,2906;0,0192906;0;0;0;0,005733148;0,005732984;17703,84;19291,71
16;0,05333222;-0,009160115;20,59698;0,02059698;0;0;0;0,005925803;0,005925627;18902,76;20598,2
16,5;0,05506612;-0,009445561;21,41912;0,02141912;0;0;0;0,006118458;0,006118271;19657,28;21420,43
17;0,05674023;-0,009180824;22,49693;0,02249693;0;0;0;0,00630447;0,006304271;20646,44;22498,35
17,5;0,05841433;-0,009346423;23,37834;0,02337834;0;0;0;0,006490482;0,006490271;21455,35;23379,86
18;0,06002865;-0,009412284;23,80948;0,02380948;0;0;0;0,00666985;0,006669627;21851,02;23811,07
18,5;0,06158318;-0,009343668;22,97873;0,02297873;0;0;0;0,006842575;0,006842341;21088,6;22980,3
19;0,06331707;-0,009299836;23,75902;0,02375902;0;0;0;0,00703523;0,007034983;21804,71;23760,69
19,5;0,06505097;-0,009385832;24,94666;0,02494666;0;0;0;0,007227886;0,007227624;22894,66;24948,47
20;0,06672507;-0,009221271;24,92763;0,02492763;0;0;0;0,007413897;0,007413622;22877,19;24929,47
20,5;0,06845897;-0,00942505;26,32567;0,02632567;0;0;0;0,007606552;0,007606263;24160,25;26327,68
21;0,07007328;-0,009287216;26,40819;0,02640819;0;0;0;0,007785921;0,007785617;24235,97;26410,25
21,5;0,07156802;-0,009389941;26,01464;0,02601464;0;0;0;0,007952002;0,007951686;23874,8;26016,71
22;0,07330192;-0,009353067;26,30463;0,02630463;0;0;0;0,008144658;0,008144326;24140,93;26306,77
22,5;0,0750358;-0,009464665;26,69118;0,02669118;0;0;0;0,008337311;0,008336964;24495,68;26693,4
23;0,07670992;-0,009235444;27,24051;0,02724051;0;0;0;0,008523325;0,008522961;24999,83;27242,83
23,5;0,07844382;-0,009544147;27,66352;0,02766352;0;0;0;0,00871598;0,0087156;25388,05;27665,93
24;0,08005813;-0,009326373;27,19005;0,02719005;0;0;0;0,008895348;0,008894952;24953,52;27192,47
24,5;0,08161265;-0,008621312;27,82758;0,02782758;0;0;0;0,009068073;0,009067661;25538,61;27830,1
25;0,08328676;-0,009424567;27,89223;0,02789223;0;0;0;0,009254084;0,009253656;25597,95;27894,81
25,5;0,08496087;-0,009442237;27,38837;0,02738837;0;0;0;0,009440097;0,009439651;25135,53;27390,95
26;0,08663497;-0,00939809;28,04351;0,02804351;0;0;0;0,009626108;0,009625645;25736,78;28046,21
26,5;0,08848845;-0,009556413;28,99188;0,02899188;0;0;0;0,00983205;0,009831566;26607,14;28994,73
27;0,09010277;-0,009349642;29,0419;0,0290419;0;0;0;0,01001142;0,01001092;26653,04;29044,81
27,5;0,09165729;-0,00946234;28,53793;0,02853793;0;0;0;0,01018414;0,01018362;26190,53;28540,84
28;0,0932716;-0,009473873;28,41744;0,02841744;0;0;0;0,01036351;0,01036297;26079,95;28420,38
28,5;0,0950055;-0,009412848;29,14747;0,02914747;0;0;0;0,01055617;0,01055561;26749,93;29150,54
29;0,09661982;-0,009411117;29,18119;0,02918119;0;0;0;0,01073554;0,01073496;26780,88;29184,32
29,5;0,09847329;-0,009607765;29,75446;0,02975446;0;0;0;0,01094148;0,01094088;27306,99;29757,71
30;0,1000876;-0,009275193;29,75744;0,02975744;0;0;0;0,01112085;0,01112023;27309,73;29760,75
30,5;0,1017019;-0,009385204;29,64766;0,02964766;0;0;0;0,01130021;0,01129958;27208,98;29651,01
31;0,1032565;-0,009449497;29,28548;0,02928548;0;0;0;0,01147294;0,01147228;26876,6;29288,84
31,5;0,1049306;-0,009405282;29,60249;0,02960249;0;0;0;0,01165895;0,01165827;27167,52;29605,94
32;0,1066644;-0,00942854;28,83502;0,02883502;0;0;0;0,01185161;0,0118509;26463,18;28838,43
32,5;0,1083983;-0,00942193;29,65119;0,02965119;0;0;0;0,01204426;0,01204354;27212,21;29654,76
33;0,1100725;-0,009252341;29,41156;0,02941156;0;0;0;0,01223027;0,01222952;26992,3;29415,16
33,5;0,1117466;-0,009290033;29,5395;0,0295395;0;0;0;0,01241628;0,01241551;27109,71;29543,17
34;0,1133011;-0,009304456;29,85498;0,02985498;0;0;0;0,01258901;0,01258822;27399,25;29858,74
34,5;0,1149752;-0,009360088;29,90158;0,02990158;0;0;0;0,01277502;0,01277421;27442,01;29905,4
35;0,1167091;-0,009301893;29,95399;0,02995399;0;0;0;0,01296768;0,01296684;27490,12;29957,88
35,5;0,1183832;-0,009320676;30,75;0,03075;0;0;0;0,01315369;0,01315282;28220,64;30754,04
36;0,1200573;-0,00920405;30,63802;0,03063802;0;0;0;0,0133397;0,01333881;28117,88;30642,11
36,5;0,1217912;-0,009014991;31,18696;0,03118696;0;0;0;0,01353236;0,01353144;28621,66;31191,18
37;0,1232859;-0,009188916;30,11365;0,03011365;0;0;0;0,01369844;0,0136975;27636,64;30117,77
37,5;0,12496;-0,009264929;30,54762;0,03054762;0;0;0;0,01388445;0,01388348;28034,91;30551,86
38;0,1266939;-0,009243692;30,39526;0,03039526;0;0;0;0,0140771;0,01407611;27895,09;30399,54
38,5;0,1284278;-0,009163548;31,88542;0,03188542;0;0;0;0,01426976;0,01426874;29262,67;31889,97
39;0,1301019;-0,0091334;32,55554;0,03255554;0;0;0;0,01445577;0,01445473;29877,68;32560,25
39,5;0,131776;-0,00884934;32,28934;0,03228934;0;0;0;0,01464178;0,01464071;29633,37;32294,07
40;0,1333306;-0,009036576;32,16968;0,03216968;0;0;0;0,01481451;0,01481341;29523,55;32174,45
40,5;0,1349449;-0,009150365;32,0644;0,0320644;0;0;0;0,01499388;0,01499275;29426,93;32069,21
41;0,136619;-0,009071958;31,347;0,031347;0;0;0;0,01517989;0,01517874;28768,54;31351,76
41,5;0,1384127;-0,009048521;32,60816;0,03260816;0;0;0;0,01537918;0,015378;29925,96;32613,17
42;0,1400868;-0,009036982;33,48986;0,03348986;0;0;0;0,0155652;0,01556399;30735,14;33495,07
42,5;0,1417609;-0,008461183;32,82659;0,03282659;0;0;0;0,01575121;0,01574997;30126,42;32831,76
43;0,1433752;-0,008895915;32,69117;0,03269117;0;0;0;0,01593058;0,01592931;30002,14;32696,37
43,5;0,1449297;-0,009010336;32,54066;0,03254066;0;0;0;0,0161033;0,01610201;29864,02;32545,9
44;0,1466038;-0,008971902;32,99769;0,03299769;0;0;0;0,01628932;0,01628799;30283,46;33003,07
44,5;0,1483975;-0,008828627;32,89638;0,03289638;0;0;0;0,01648861;0,01648725;30190,47;32901,8
45;0,1501314;-0,008872578;34,1848;0,0341848;0;0;0;0,01668127;0,01667988;31372,91;34190,5
45,5;0,1517457;-0,008335609;32,62446;0,03262446;0;0;0;0,01686064;0,01685922;29940,92;32629,96
46;0,1534198;-0,008705467;34,3351;0,0343351;0;0;0;0,01704665;0,0170452;31510,85;34340,95
46,5;0,1549146;-0,008817806;32,92296;0,03292296;0;0;0;0,01721273;0,01721125;30214,87;32928,62
47;0,1565887;-0,008828488;33,157;0,033157;0;0;0;0,01739874;0,01739723;30429,66;33162,77
47,5;0,1583824;-0,008667047;34,14814;0,03414814;0;0;0;0,01759804;0,01759649;31339,27;34154,15
48;0,1600565;-0,008701307;34,85326;0,03485326;0;0;0;0,01778405;0,01778247;31986,39;34859,46
48,5;0,1617306;-0,008311531;34,93886;0,03493886;0;0;0;0,01797006;0,01796845;32064,95;34945,14
49;0,1634645;-0,008622191;34,95682;0,03495682;0;0;0;0,01816272;0,01816107;32081,43;34963,17
49,5;0,1649592;-0,008650534;33,91826;0,03391825;0;0;0;0,0183288;0,01832712;31128,3;33924,47
50;0,1666333;-0,008747153;34,65558;0,03465558;0;0;0;0,01851481;0,0185131;31804,97;34661,99
50,5;0,1683672;-0,008518259;35,04487;0,03504487;0;0;0;0,01870747;0,01870572;32162,24;35051,42
51;0,1700413;-0,00863374;35,33632;0,03533632;0;0;0;0,01889348;0,01889169;32429,72;35343
51,5;0,1717752;-0,008366186;34,63463;0,03463463;0;0;0;0,01908614;0,01908431;31785,75;34641,24
52;0,1734493;-0,008571658;36,67305;0,03667305;0;0;0;0,01927214;0,01927029;33656,49;36680,11
52,5;0,1749441;-0,008589462;36,07188;0,03607189;0;0;0;0,01943823;0,01943634;33104,78;36078,9
53;0,1766182;-0,008660184;35,6964;0,03569639;0;0;0;0,01962424;0,01962231;32760,17;35703,4
53,5;0,1783521;-0,008471459;35,59322;0,03559322;0;0;0;0,01981689;0,01981493;32665,49;35600,28
54;0,1800262;-0,008599411;36,46656;0,03646656;0;0;0;0,02000291;0,02000091;33466,99;36473,85
54,5;0,18176;-0,008435622;36,19013;0,03619013;0;0;0;0,02019556;0,02019352;33213,29;36197,44
55;0,1834342;-0,008556108;36,92711;0,03692711;0;0;0;0,02038157;0,0203795;33889,66;36934,64
55,5;0,1849887;-0,008616197;36,67378;0,03667378;0;0;0;0,0205543;0,02055219;33657,16;36681,32
56;0,186603;-0,008657346;35,85032;0,03585032;0;0;0;0,02073367;0,02073152;32901,44;35857,75
56,5;0,1882771;-0,008515034;36,21436;0,03621436;0;0;0;0,02091968;0,02091749;33235,53;36221,93
57;0,1900708;-0,008670157;37,02137;0,03702137;0;0;0;0,02111898;0,02111675;33976,16;37029,19
57,5;0,1918047;-0,008674612;36,97845;0,03697845;0;0;0;0,02131163;0,02130936;33936,77;36986,33
58;0,193419;-0,008616968;38,1937;0,0381937;0;0;0;0,021491;0,02148869;35052,06;38201,9
58,5;0,1950333;-0,008669455;37,20133;0,03720133;0;0;0;0,02167037;0,02166802;34141,32;37209,4
59;0,1965878;-0,008753032;37,22106;0,03722106;0;0;0;0,02184309;0,02184071;34159,43;37229,19
59,5;0,1983217;-0,008639971;36,94845;0,03694845;0;0;0;0,02203575;0,02203332;33909,24;36956,59
60;0,1999958;-0,008695251;37,93543;0,03793542;0;0;0;0,02222176;0,02221929;34815,03;37943,86
60,5;0,2016699;-0,008794175;37,55661;0,03755661;0;0;0;0,02240777;0,02240526;34467,38;37565,03
61;0,2034636;-0,00865063;38,40018;0,03840018;0;0;0;0,02260707;0,02260452;35241,56;38408,87
61,5;0,2050779;-0,008865421;37,99876;0,03799876;0;0;0;0,02278644;0,02278384;34873,16;38007,42
62;0,2065727;-0,008901996;37,88105;0,03788105;0;0;0;0,02295252;0,02294989;34765,13;37889,75
62,5;0,2083066;-0,008832294;38,16159;0,03816159;0;0;0;0,02314518;0,0231425;35022,59;38170,42
63;0,2099807;-0,008811697;38,98608;0,03898608;0;0;0;0,02333119;0,02332847;35779,27;38995,18
63,5;0,2117146;-0,008946265;38,32839;0,03832839;0;0;0;0,02352384;0,02352108;35175,67;38337,4
64;0,2135083;-0,008825294;38,97042;0,03897042;0;0;0;0,02372314;0,02372033;35764,89;38979,66
64,5;0,2150628;-0,008967533;38,68811;0,03868812;0;0;0;0,02389587;0,02389301;35505,81;38697,36
65;0,2166771;-0,008960411;39,3124;0,0393124;0;0;0;0,02407524;0,02407234;36078,75;39321,87
65,5;0,2182914;-0,008968277;39,07261;0,03907261;0;0;0;0,02425461;0,02425166;35858,68;39082,09
66;0,2199655;-0,008966952;39,44932;0,03944932;0;0;0;0,02444061;0,02443763;36204,4;39458,96
66,5;0,2216397;-0,009149949;39,80873;0,03980874;0;0;0;0,02462663;0,0246236;36534,25;39818,54
67;0,2234931;-0,008904802;40,24171;0,04024171;0;0;0;0,02483257;0,02482949;36931,61;40251,7
67,5;0,2250477;-0,00914779;39,35929;0,03935929;0;0;0;0,02500529;0,02500217;36121,78;39369,13
68;0,226662;-0,009057426;39,26708;0,03926708;0;0;0;0,02518466;0,02518149;36037,15;39276,97
68,5;0,2282763;-0,009149404;39,33524;0,03933524;0;0;0;0,02536403;0,02536082;36099,7;39345,21
69;0,2299504;-0,009118099;39,01608;0,03901608;0;0;0;0,02555004;0,02554678;35806,8;39026,05
69,5;0,2316843;-0,009255802;39,08893;0,03908893;0;0;0;0,0257427;0,02573939;35873,66;39099
70;0,233478;-0,009053554;40,84397;0,04084397;0;0;0;0,025942;0,02593863;37484,33;40854,57
70,5;0,2350923;-0,009261143;39,74428;0,03974428;0;0;0;0,02612136;0,02611795;36475,09;39754,66
71;0,2367066;-0,009169668;39,39389;0,03939389;0;0;0;0,02630073;0,02629728;36153,54;39404,26
71,5;0,2382611;-0,009255557;40,22492;0,04022492;0;0;0;0,02647346;0,02646995;36916,2;40235,57
72;0,2399352;-0,009209481;39,39341;0,03939341;0;0;0;0,02665947;0,02665592;36153,09;39403,91
72,5;0,2417289;-0,009344923;39,76268;0,03976268;0;0;0;0,02685877;0,02685516;36491,98;39773,36
73;0,243403;-0,009149811;39,62488;0,03962488;0;0;0;0,02704478;0,02704112;36365,52;39635,6
73,5;0,2450771;-0,009380185;40,51185;0,04051185;0;0;0;0,02723079;0,02722709;37179,53;40522,88
74;0,2467512;-0,009228658;40,03113;0,04003113;0;0;0;0,0274168;0,02741304;36738,35;40042,1
74,5;0,2483058;-0,00932056;39,70333;0,03970334;0;0;0;0,02758953;0,02758572;36437,52;39714,29
75;0,2499201;-0,009290989;39,8949;0,0398949;0;0;0;0,0277689;0,02776504;36613,32;39905,97
75,5;0,251654;-0,009379558;40,12953;0,04012953;0;0;0;0,02796155;0,02795764;36828,66;40140,75
76;0,2533878;-0,009189787;40,56992;0,04056992;0;0;0;0,02815421;0,02815024;37232,82;40581,34
76,5;0,2551218;-0,009441877;40,58171;0,04058171;0;0;0;0,02834686;0,02834285;37243,64;40593,21
77;0,2567361;-0,009300406;40,63973;0,04063973;0;0;0;0,02852623;0,02852216;37296,89;40651,32
77,5;0,2583504;-0,009380532;39,89715;0,03989715;0;0;0;0,0287056;0,02870148;36615,39;39908,6
78;0,2599049;-0,009382365;40,12689;0,04012689;0;0;0;0,02887833;0,02887416;36826,23;40138,47
78,5;0,2616388;-0,009441497;40,05526;0,04005526;0;0;0;0,02907098;0,02906675;36760,5;40066,9
79;0,2634325;-0,009254307;40,52078;0,04052078;0;0;0;0,02927027;0,02926599;37187,72;40532,64
79,5;0,2651066;-0,009472623;40,06331;0,04006331;0;0;0;0,02945629;0,02945195;36767,88;40075,11
80;0,2667807;-0,009251855;40,6481;0,0406481;0;0;0;0,0296423;0,02963791;37304,57;40660,15
80,5;0,268395;-0,009419576;40,33609;0,04033609;0;0;0;0,02982167;0,02981723;37018,23;40348,12
81;0,2699496;-0,009410895;39,32682;0,03932682;0;0;0;0,02999439;0,0299899;36091,98;39338,61
81,5;0,2716237;-0,00944782;40,1688;0,0401688;0;0;0;0,03018041;0,03017586;36864,7;40180,93
82;0,2734173;-0,009344789;40,14382;0,04014382;0;0;0;0,0303797;0,03037509;36841,77;40156,01
82,5;0,2750317;-0,009507401;40,21165;0,04021166;0;0;0;0,03055907;0,0305544;36904,03;40223,94
83;0,2767656;-0,009252584;41,38271;0,04138271;0;0;0;0,03075173;0,030747;37978,76;41395,43
83,5;0,2784397;-0,009509371;40,72435;0,04072435;0;0;0;0,03093774;0,03093295;37374,55;40736,95
84;0,2799344;-0,009385348;40,58027;0,04058027;0;0;0;0,03110382;0,03109899;37242,32;40592,89
84,5;0,2816085;-0,009411089;40,13707;0,04013707;0;0;0;0,03128983;0,03128494;36835,57;40149,63
85;0,2834022;-0,009483128;40,10829;0,04010829;0;0;0;0,03148913;0,03148418;36809,16;40120,92
85,5;0,2850165;-0,00955679;40,43331;0,04043331;0;0;0;0,0316685;0,03166349;37107,46;40446,12
86;0,2868102;-0,009312793;41,83878;0,04183878;0;0;0;0,0318678;0,03186272;38397,31;41852,11
86,5;0,2884843;-0,0095582;40,37143;0,04037143;0;0;0;0,03205381;0,03204867;37050,66;40384,37
87;0,2899192;-0,009361843;38,26814;0,03826814;0;0;0;0,03221325;0,03220806;35120,38;38280,47
87,5;0,2915933;-0,009424061;34,31684;0,03431685;0;0;0;0,03239926;0,03239401;31494,1;34327,96
88;0,293387;-0,009425155;33,82708;0,03382708;0;0;0;0,03259856;0,03259325;31044,62;33838,1
88,5;0,2950013;-0,009395977;31,57233;0,03157233;0;0;0;0,03277793;0,03277256;28975,34;31582,68
89;0,296795;-0,009324097;32,34176;0,03234176;0;0;0;0,03297723;0,03297179;29681,48;32352,43
89,5;0,2984093;-0,009573547;31,3703;0,0313703;0;0;0;0,03315659;0,0331511;28789,92;31380,7
90;0,2999639;-0,009211559;31,59406;0,03159406;0;0;0;0,03332932;0,03332377;28995,28;31604,59
90,5;0,3015782;-0,009458999;30,31426;0,03031426;0;0;0;0,03350869;0,03350308;27820,75;30324,42
91;0,3033121;-0,009406012;30,61335;0,03061335;0;0;0;0,03370135;0,03369567;28095,24;30623,67
91,5;0,3049862;-0,009377864;30,89898;0,03089898;0;0;0;0,03388735;0,03388161;28357,37;30909,45
92;0,3067798;-0,009314712;31,09201;0,03109201;0;0;0;0,03408665;0,03408084;28534,52;31102,61
92,5;0,308454;-0,009479121;31,36085;0,03136085;0;0;0;0,03427266;0,03426679;28781,25;31371,6
93;0,3100085;-0,009170266;31,12451;0,03112451;0;0;0;0,03444539;0,03443946;28564,35;31135,23
93,5;0,3116228;-0,009462512;30,68011;0,03068011;0;0;0;0,03462476;0,03461876;28156,5;30690,73
94;0,3133567;-0,009296798;31,14888;0,03114888;0;0;0;0,03481742;0,03481135;28586,72;31159,73
94,5;0,3150308;-0,00925384;30,62358;0,03062358;0;0;0;0,03500342;0,0349973;28104,63;30634,3
95;0,3167049;-0,009262368;31,3611;0,0313611;0;0;0;0,03518944;0,03518325;28781,48;31372,13
95,5;0,3184986;-0,009344675;31,82439;0,03182439;0;0;0;0,03538873;0,03538247;29206,66;31835,65
96;0,3200531;-0,009080002;31,20389;0,03120389;0;0;0;0,03556146;0,03555514;28637,2;31214,99
96,5;0,3216077;-0,009347732;31,10459;0,03110459;0;0;0;0,03573418;0,0357278;28546,07;31115,7
97;0,3232818;-0,009268337;30,64834;0,03064835;0;0;0;0,0359202;0,03591375;28127,35;30659,35
97,5;0,3250157;-0,009199881;30,43632;0,03043632;0;0;0;0,03611286;0,03610634;27932,77;30447,31
98;0,32663;-0,00916637;30,79542;0,03079542;0;0;0;0,03629222;0,03628564;28262,33;30806,59
98,5;0,3284834;-0,009291979;31,29537;0,03129537;0;0;0;0,03649816;0,0364915;28721,15;31306,79
99;0,3300977;-0,008999621;31,00729;0,03100729;0;0;0;0,03667753;0,0366708;28456,77;31018,66
99,5;0,3316523;-0,009285384;30,18491;0,03018491;0;0;0;0,03685026;0,03684347;27702,04;30196,03
100;0,3333264;-0,009123183;29,75994;0,02975994;0;0;0;0,03703627;0,03702941;27312,02;29770,96
100,5;0,3350005;-0,00909355;30,06441;0,03006441;0;0;0;0,03722228;0,03721535;27591,45;30075,6
101;0,3366746;-0,009055675;29,19832;0,02919832;0;0;0;0,03740829;0,0374013;26796,6;29209,24
101,5;0,3384683;-0,009196925;30,1087;0,0301087;0;0;0;0,03760759;0,03760052;27632,1;30120,02
102;0,3400826;-0,008918571;29,29434;0,02929434;0;0;0;0,03778696;0,03777982;26884,73;29305,41
102,5;0,341697;-0,00912159;29,10665;0,02910665;0;0;0;0,03796633;0,03795912;26712,47;29117,7
103;0,3433113;-0,008827795;28,52761;0,02852761;0;0;0;0,03814569;0,03813842;26181,06;28538,49
103,5;0,3449256;-0,009022465;29,29924;0,02929924;0;0;0;0,03832507;0,03831772;26889,22;29310,47
104;0,3467193;-0,008971003;29,91132;0,02991132;0;0;0;0,03852436;0,03851694;27450,95;29922,84
104,5;0,3484531;-0,009177247;29,92247;0,02992247;0;0;0;0,03871702;0,03870952;27461,19;29934,06
105;0,3500675;-0,008803308;29,6433;0,0296433;0;0;0;0,03889639;0,03888882;27204,98;29654,84
105,5;0,3517416;-0,009036659;29,62378;0,02962378;0;0;0;0,0390824;0,03907476;27187,06;29635,35
106;0,3532961;-0,008630648;29,59857;0,02959857;0;0;0;0,03925512;0,03924742;27163,93;29610,19
106,5;0,371233;-0,008903123;32,03602;0,03203602;0;0;0;0,04124811;0,0412396;29400,88;32049,23
107;0,5513188;-0,008903233;43,52997;0,04352997;0;0;0;0,06125765;0,06123889;39949,39;43556,64
107,5;0,7181316;-0,009037771;32,90813;0,03290813;0;0;0;0,0797924;0,07976058;30201,25;32934,38
108;0,8848247;-0,008724244;44,13202;0,04413202;0;0;0;0,09831385;0,09826556;40501,92;44175,4
108,5;1,051518;-0,008972359;7,527852;0,007527852;0;0;0;0,1168353;0,1167671;6908,646;7536,647
109;1,218031;-0,008146713;7,537543;0,007537543;0;0;0;0,1353368;0,1352453;6917,539;7547,744
109,5;1,384665;-0,008817985;7,2039;0,0072039;0;0;0;0,1538516;0,1537334;6611,34;7214,983
110;1,551418;-0,008865741;8,674384;0,008674384;0;0;0;0,1723797;0,1722313;7960,869;8689,337
110,5;1,718111;-0,008930627;8,315976;0,008315977;0;0;0;0,1909012;0,1907192;7631,942;8331,852
111;1,884625;-0,008654534;7,214961;0,007214961;0;0;0;0,2094027;0,2091838;6621,492;7230,069
111,5;2,051318;-0,008955404;7,440098;0,007440098;0;0;0;0,2279242;0,2276648;6828,11;7457,056
112;2,218011;-0,00794924;7,996479;0,007996479;0;0;0;0,2464456;0,2461424;7338,725;8016,186
112,5;2,384644;-0,008803487;7,992954;0,007992955;0;0;0;0,2649604;0,26461;7335,491;8014,133
113;2,551397;-0,008819514;7,850629;0,007850629;0;0;0;0,2834886;0,2830875;7204,873;7872,885
113,5;2,71803;-0,00883343;8,090889;0,008090889;0;0;0;0,3020034;0,3015482;7425,37;8115,324
114;2,884664;-0,008623236;7,548164;0,007548164;0;0;0;0,3205182;0,3200056;6927,286;7572,357
114,5;3,051416;-0,008931395;7,621039;0,007621039;0;0;0;0,3390463;0,3384728;6994,167;7646,878
115;3,21811;-0,007860828;7,686329;0,007686329;0;0;0;0,3575677;0,35693;7054,087;7713,813
115,5;3,384803;-0,008760527;7,602882;0,007602882;0;0;0;0,3760892;0,3753837;6977,503;7631,475
116;3,551436;-0,008748244;7,06319;0,00706319;0;0;0;0,394604;0,3938275;6482,204;7091,061
116,5;3,718129;-0,008655576;7,603224;0,007603223;0;0;0;0,4131255;0,4122744;6977,817;7634,634
117;3,884703;-0,008702835;6,602198;0,006602198;0;0;0;0,4316337;0,4307048;6059,132;6630,695
117,5;4,051515;-0,008902787;7,623388;0,007623388;0;0;0;0,4501684;0,4491582;6996,323;7657,706
118;4,218029;-0,007738004;7,270119;0,007270119;0;0;0;0,4686699;0,4675751;6672,113;7304,192
118,5;4,384782;-0,008856033;7,730573;0,007730572;0;0;0;0,487198;0,486015;7094,691;7768,236
119;4,551534;-0,008630161;7,906082;0,007906082;0;0;0;0,505726;0,5044515;7255,764;7946,065
119,5;4,718108;-0,008636115;7,402852;0,007402853;0;0;0;0,5242342;0,5228649;6793,928;7441,661
120;4,884622;-0,008688791;6,90026;0,00690026;0;0;0;0,5427358;0,5412683;6332,676;6937,71
120,5;5,051435;-0,008652894;8,004897;0,008004896;0;0;0;0,5612705;0,5597013;7346,451;8049,826
121;5,218128;-0,008435194;7,674631;0,007674631;0;0;0;0,579792;0,5781176;7043,352;7719,128
121,5;5,384641;-0,008796743;7,628233;0,007628233;0;0;0;0,5982935;0,5965108;7000,77;7673,873
122;5,551335;-0,008430309;7,305652;0,007305652;0;0;0;0,616815;0,6149205;6704,723;7350,715
122,5;5,718027;-0,008554845;8,170715;0,008170715;0;0;0;0,6353364;0,6333266;7498,629;8222,626
123;5,884721;-0,008589493;7,727783;0,007727783;0;0;0;0,6538579;0,6517295;7092,131;7778,312
123,5;6,051235;-0,008564835;7,174437;0,007174437;0;0;0;0,6723594;0,6701092;6584,301;7222,675
124;6,217988;-0,008562541;8,178399;0,008178399;0;0;0;0,6908875;0,6885118;7505,682;8234,903
124,5;6,3848;-0,00869047;7,482433;0,007482433;0;0;0;0,7094222;0,7069177;6866,963;7535,515
125;6,551434;-0,00843948;7,243348;0,007243348;0;0;0;0,7279371;0,7253004;6647,543;7296,075
125,5;6,718007;-0,008748027;7,372753;0,007372753;0;0;0;0,7464452;0,7436731;6766,304;7427,786
125,556;6,736781;-0,008166392;6,750544;0,006750544;0;0;0;0,7485312;0,7457436;6195,275;6801,074