File: scratch/src/apps/scratch/axel/tensile_tests/pullout01.raw
"Prüfungstyp";"Manuell"
"Methodenname:";"C:\INSTRON\USER\TEMPLATE\Zugversuch Textilbeton.mtM"
"Name:";"Zugversuche Carbon"
"Prüfer";""
"Firma:";""
"Abteilung:";""
"Prüfdatum:";"01.01.97"
"Temperatur:";""
"Feuchtigkeit:";""
"Anmerkung 1:";""
"Anmerkung 2:";""
"Anmerkung 3:";""
"Geometrie:";"Rectangular"
"Probe";1
"Probenname:";"V19-Z-3-1"
"Breite:";100;"mm"
"Dicke:";10;"mm"
"Länge:";900;"mm"
"Durchmesser:";1.000000;"mm"
"Innendurchmesser:";0.500000;"mm"
"Außendurchm.:";1.000000;"mm"
"Wandstärke:";0.500000;"mm"
"Querschnitt:";1000;"mm*mm"
"Lineare Dichte:";1.000000;"den"
"Schlittengewicht:";9.806650;"N"
"Lade-Spannweite:";0.000000;"mm"
"Unterstütz.-Spannweite:";1.000000;"mm"
"Spannweitenverhältnis:";"2"
"Vorrichtungstyp:";"3-point"
"Kommentar:";""
"Eingefügt"
"Endbreite:";100;"mm"
"Enddicke:";10;"mm"
"Endlänge:";900;"mm"
"Enddurchmesser:";1.000000;"mm"
"Endinnendurchmesser:";0.500000;"mm"
"Endaußendurchmesser:";1.000000;"mm"
"Endwandstärke:";0.500000;"mm"
"Endquerschnitt:";1000;"mm*mm"
"Lineare Enddichte:";1.000000;"den"
"Zeit sec";"Verformung mm";"Dehnung 1 %";"Kraft N";"Spannung MPa";"Anz. der Zykl. ";"Zyklenzahl gesamt ";"Wiederholungswert ";"Dehnung [Trav.] %";"Tatsächliche dehnung %";"Zähigkeit gf/tex";"Tatsächliche spannung Pa"
0;0;-0,008407922;-25,53968;-0,02553968;0;0;0;0;0;-23438,9;-25539,68
1,5;0,005261475;-0,008880454;-19,32571;-0,01932571;0;0;0;0,0005846084;0,0005846066;-17736,07;-19325,83
3;0,009925055;-0,009000546;-16,35964;-0,01635964;0;0;0;0,001102784;0,001102778;-15013,97;-16359,82
4,5;0,01506695;-0,008871685;-12,06844;-0,01206844;0;0;0;0,001674106;0,001674092;-11075,74;-12068,64
6;0,01996969;-0,009005985;-9,075933;-0,009075933;0;0;0;0,002218854;0,00221883;-8329,389;-9076,135
7,5;0,02499201;-0,008846199;-6,945115;-0,006945115;0;0;0;0,00277689;0,002776851;-6373,841;-6945,308
9;0,02995454;-0,008962851;-4,446882;-0,004446882;0;0;0;0,003328282;0,003328226;-4081,102;-4447,03
10,5;0,03497685;-0,008776435;-2,79575;-0,00279575;0;0;0;0,003886317;0,003886241;-2565,785;-2795,859
12;0,03999917;-0,008937702;-1,187101;-0,001187101;0;0;0;0,004444352;0,004444254;-1089,455;-1187,153
13,5;0,04502149;-0,008760044;-0,1470678;-0,0001470678;0;0;0;0,005002387;0,005002262;-134,9707;-147,0752
15;0,05004381;-0,008242438;2,62123;0,00262123;0;0;0;0,005560423;0,005560268;2405,62;2621,376
16,5;0,05500633;-0,008798264;3,71647;0,00371647;0;0;0;0,006111815;0,006111628;3410,771;3716,698
18;0,06002865;-0,009008502;5,167622;0,005167622;0;0;0;0,00666985;0,006669627;4742,558;5167,967
19,5;0,06493139;-0,00876507;5,081972;0,005081972;0;0;0;0,007214599;0,007214339;4663,953;5082,339
21;0,07007328;-0,009022509;7,107663;0,007107663;0;0;0;0,007785921;0,007785617;6523,019;7108,216
22,5;0,07497602;-0,008796758;7,252875;0,007252875;0;0;0;0,008330668;0,008330322;6656,287;7253,48
24;0,08005813;-0,00908028;8,57242;0,00857242;0;0;0;0,008895348;0,008894952;7867,292;8573,183
25,5;0,08490107;-0,00891411;8,760997;0,008760996;0;0;0;0,009433453;0,009433008;8040,357;8761,823
27;0,09004297;-0,009165653;9,769412;0,009769413;0;0;0;0,01000477;0,01000427;8965,825;9770,39
28,5;0,09494571;-0,00896255;9,147987;0,009147987;0;0;0;0,01054952;0,01054897;8395,516;9148,952
30;0,1000278;-0,009297138;11,74063;0,01174063;0;0;0;0,0111142;0,01111358;10774,9;11741,93
31,5;0,1049306;-0,009046966;9,706521;0,009706521;0;0;0;0,01165895;0,01165827;8908,107;9707,653
33;0,1100725;-0,009329126;11,29251;0,01129251;0;0;0;0,01223027;0,01222952;10363,64;11293,89
34,5;0,1148556;-0,009141468;10,96626;0,01096626;0;0;0;0,01276174;0,01276092;10064,22;10967,66
36;0,1200573;-0,00933925;12,51422;0,01251422;0;0;0;0,0133397;0,01333881;11484,86;12515,89
37,5;0,1248405;-0,009195949;11,52822;0,01152822;0;0;0;0,01387116;0,0138702;10579,96;11529,82
39;0,1301019;-0,009268839;13,13731;0,01313731;0;0;0;0,01445577;0,01445473;12056,69;13139,21
40,5;0,1348851;-0,009238505;12,3045;0,0123045;0;0;0;0,01498723;0,01498611;11292,39;12306,34
42;0,140027;-0,009234019;13,71052;0,01371052;0;0;0;0,01555855;0,01555734;12582,76;13712,66
43,5;0,1449297;-0,009183848;13,24293;0,01324293;0;0;0;0,0161033;0,01610201;12153,62;13245,06
45;0,1500118;-0,009271791;13,50746;0,01350746;0;0;0;0,01666798;0,01666659;12396,4;13509,71
46,5;0,1549146;-0,009133064;13,86866;0,01386866;0;0;0;0,01721273;0,01721125;12727,89;13871,05
48;0,1599967;-0,009241875;14,94755;0,01494755;0;0;0;0,01777741;0,01777583;13718,04;14950,21
49,5;0,1649592;-0,009069532;14,36367;0,01436367;0;0;0;0,0183288;0,01832712;13182,18;14366,3
51;0,1699815;-0,009177159;14,50545;0,01450545;0;0;0;0,01888683;0,01888505;13312,3;14508,19
52,5;0,1750038;-0,009000651;15,51078;0,01551078;0;0;0;0,01944487;0,01944298;14234,94;15513,8
54;0,1799664;-0,009097176;16,12164;0,01612164;0;0;0;0,01999626;0,01999426;14795,55;16124,86
55,5;0,1850485;-0,009008991;15,9061;0,0159061;0;0;0;0,02056094;0,02055883;14597,73;15909,37
57;0,1899512;-0,009119981;16,01485;0,01601485;0;0;0;0,02110569;0,02110346;14697,54;16018,23
58,5;0,1950333;-0,008988249;16,8825;0,0168825;0;0;0;0,02167037;0,02166802;15493,83;16886,16
60;0,1998763;-0,009177642;17,304;0,017304;0;0;0;0,02220847;0,02220601;15880,65;17307,84
61,5;0,2050182;-0,009038638;17,48234;0,01748234;0;0;0;0,0227798;0,0227772;16044,33;17486,33
63;0,2098611;-0,00919025;17,99316;0,01799316;0;0;0;0,0233179;0,02331518;16513,13;17997,36
64,5;0,215003;-0,009071661;18,26376;0,01826376;0;0;0;0,02388922;0,02388637;16761,47;18268,13
66;0,2199058;-0,009242342;18,31638;0,01831638;0;0;0;0,02443397;0,02443099;16809,76;18320,85
67,5;0,2250477;-0,008994638;19,17503;0,01917503;0;0;0;0,02500529;0,02500217;17597,78;19179,82
69;0,2298906;-0,009184841;18,86737;0,01886738;0;0;0;0,0255434;0,02554014;17315,43;18872,19
70,5;0,2350923;-0,008955121;19,89405;0,01989404;0;0;0;0,02612136;0,02611795;18257,65;19899,24
72;0,2398754;-0,009107225;20,07557;0,02007557;0;0;0;0,02665283;0,02664927;18424,25;20080,93
73,5;0,2450173;-0,008894622;20,78936;0,02078936;0;0;0;0,02722415;0,02722044;19079,32;20795,01
75;0,2499201;-0,008992726;20,15706;0,02015706;0;0;0;0,0277689;0,02776504;18499,04;20162,66
76,5;0,2549424;-0,008832175;20,69646;0,02069646;0;0;0;0,02832693;0,02832292;18994,07;20702,33
78;0,2599049;-0,008937882;21,36199;0,02136199;0;0;0;0,02887833;0,02887416;19604,85;21368,15
79,5;0,264987;-0,008797434;21,62138;0,02162138;0;0;0;0,02944301;0,02943867;19842,91;21627,75
81;0,2698898;-0,008954347;20,89253;0,02089253;0;0;0;0,02998775;0,02998325;19174;20898,79
82,5;0,2749121;-0,008792594;22,39453;0,02239453;0;0;0;0,03054579;0,03054112;20552,46;22401,37
84;0,2799344;-0,008903289;22,6806;0,0226806;0;0;0;0,03110382;0,03109899;20815;22687,66
85,5;0,2849567;-0,008719673;22,66616;0,02266616;0;0;0;0,03166186;0,03165685;20801,75;22673,34
87;0,289979;-0,008819422;22,93006;0,02293006;0;0;0;0,03221989;0,0322147;21043,94;22937,45
88,5;0,2949416;-0,008682579;23,29361;0,02329361;0;0;0;0,03277129;0,03276592;21377,58;23301,24
90;0,3000237;-0,008671799;23,47127;0,02347127;0;0;0;0,03333597;0,03333041;21540,63;23479,09
91,5;0,3049264;-0,008542302;23,87436;0,02387436;0;0;0;0,03388071;0,03387497;21910,57;23882,45
93;0,3100085;-0,008608903;23,63219;0,02363219;0;0;0;0,03444539;0,03443946;21688,32;23640,33
94,5;0,3149112;-0,008522919;24,30863;0,02430863;0;0;0;0,03499014;0,03498402;22309,12;24317,14
96;0,3199934;-0,008571102;24,45281;0,02445281;0;0;0;0,03555482;0,0355485;22441,44;24461,51
97,5;0,3248961;-0,008584869;24,60532;0,02460532;0;0;0;0,03609956;0,03609305;22581,4;24614,2
99;0,330038;-0,008716584;25,20834;0,02520834;0;0;0;0,03667089;0,03666417;23134,82;25217,59
100,5;0,3348809;-0,008763856;24,56763;0,02456763;0;0;0;0,03720899;0,03720207;22546,81;24576,78
102;0,3400228;-0,008856849;25,09201;0,02509201;0;0;0;0,03778031;0,03777318;23028,05;25101,49
103,5;0,3448658;-0,008962192;24,7639;0,0247639;0;0;0;0,03831842;0,03831108;22726,93;24773,39
105;0,3500675;-0,008957163;25,91062;0,02591062;0;0;0;0,03889639;0,03888882;23779,33;25920,7
106,5;0,3548506;-0,009076239;25,525;0,025525;0;0;0;0,03942785;0,03942008;23425,43;25535,07
108;0,3600523;-0,009077564;26,84;0,02684;0;0;0;0,04000581;0,03999781;24632,26;26850,74
109,5;0,3648355;-0,009210916;25,94601;0,02594601;0;0;0;0,04053728;0,04052906;23811,81;25956,53
111;0,3700372;-0,009236116;26,35228;0,02635228;0;0;0;0,04111524;0,04110679;24184,66;26363,12
112,5;0,3748801;-0,009301546;26,37436;0,02637436;0;0;0;0,04165335;0,04164467;24204,92;26385,34
114;0,380022;-0,009319389;27,19459;0,02719459;0;0;0;0,04222467;0,04221575;24957,69;27206,07
115,5;0,384865;-0,009437971;27,19865;0,02719865;0;0;0;0,04276277;0,04275363;24961,41;27210,28
117;0,3900068;-0,00935428;27,73746;0,02773746;0;0;0;0,04333409;0,04332471;25455,9;27749,48
118,5;0,3949096;-0,009417856;26,80261;0,02680261;0;0;0;0,04387885;0,04386922;24597,95;26814,37
120;0,3999917;-0,009451633;27,68132;0,02768132;0;0;0;0,04444352;0,04443365;25404,38;27693,63
121,5;0,4049542;-0,009351898;27,60825;0,02760825;0;0;0;0,04499491;0,0449848;25337,32;27620,67
123;0,4099765;-0,009428089;28,04492;0,02804492;0;0;0;0,04555295;0,04554258;25738,07;28057,69
124,5;0,4149989;-0,009288742;28,05441;0,02805441;0;0;0;0,04611098;0,04610036;25746,79;28067,35
126;0,4199614;-0,009324794;28,42883;0,02842882;0;0;0;0,04666238;0,0466515;26090,4;28442,09
127,5;0,4250435;-0,009194931;27,9899;0,02798991;0;0;0;0,04722705;0,04721591;25687,58;28003,12
129;0,4299463;-0,009047664;25,57918;0,02557918;0;0;0;0,0477718;0,0477604;23475,16;25591,4
130,5;0,4350283;-0,009030877;26,09896;0,02609896;0;0;0;0,04833648;0,0483248;23952,18;26111,57
132;0,4398713;-0,009177367;24,48365;0,02448365;0;0;0;0,04887459;0,04886265;22469,74;24495,62
133,5;0,445073;-0,008974643;25,29585;0,02529585;0;0;0;0,04945255;0,04944033;23215,13;25308,36
135;0,4498562;-0,009172661;24,752;0,024752;0;0;0;0,04998402;0,04997153;22716,02;24764,37
136,5;0,4550578;-0,008990988;25,28054;0,02528054;0;0;0;0,05056198;0,0505492;23201,07;25293,32
138;0,4599008;-0,00919592;24,60483;0,02460483;0;0;0;0,05110009;0,05108704;22580,95;24617,41
139,5;0,4650427;-0,009022278;25,20428;0,02520428;0;0;0;0,05167141;0,05165806;23131,09;25217,3
141;0,4698856;-0,009150871;24,80687;0,02480687;0;0;0;0,05220951;0,05219589;22766,37;24819,82
142,5;0,4750275;-0,008985578;25,43735;0,02543735;0;0;0;0,05278084;0,05276691;23344,99;25450,77
144;0,4798705;-0,009125653;25,21118;0,02521118;0;0;0;0,05331894;0,05330473;23137,43;25224,62
145,5;0,4850123;-0,00891202;25,67726;0,02567727;0;0;0;0,05389026;0,05387574;23565,17;25691,1
147;0,4898553;-0,009109506;25,22802;0,02522802;0;0;0;0,05442837;0,05441356;23152,88;25241,75
148,5;0,4949374;-0,008900983;25,92281;0,02592281;0;0;0;0,05499305;0,05497793;23790,52;25937,07
150;0,4998999;-0,009069659;25,33418;0,02533418;0;0;0;0,05554444;0,05552901;23250,3;25348,25
151,5;0,5049222;-0,008875697;25,67261;0,02567261;0;0;0;0,05610247;0,05608674;23560,9;25687,02
153;0,5099446;-0,009028753;26,32811;0,02632811;0;0;0;0,05666051;0,05664446;24162,48;26343,02
154,5;0,5149071;-0,008867353;26,11104;0,02611104;0;0;0;0,0572119;0,05719554;23963,27;26125,98
156;0,5199892;-0,008924671;25,99299;0,025993;0;0;0;0,05777657;0,05775989;23854,93;26008,01
157,5;0,5249518;-0,008795756;25,76698;0,02576698;0;0;0;0,05832797;0,05831097;23647,5;25782,01
159;0,5300338;-0,008883746;26,20438;0,02620438;0;0;0;0,05889265;0,05887531;24048,93;26219,81
160,5;0,5349366;-0,008723821;26,31327;0,02631327;0;0;0;0,05943739;0,05941974;24148,87;26328,91
162;0,5400187;-0,008830691;26,67927;0,02667927;0;0;0;0,06000208;0,05998408;24484,75;26695,28
163,5;0,5449214;-0,008601036;26,3331;0,0263331;0;0;0;0,06054683;0,0605285;24167,06;26349,04
165;0,5500633;-0,008817114;26,83755;0,02683755;0;0;0;0,06111814;0,06109948;24630,02;26853,95
166,5;0,5671631;-0,00866021;26,40876;0,02640876;0;0;0;0,06301812;0,06299828;24236,5;26425,41
168;0,5925138;-0,00878991;27,24245;0,02724245;0;0;0;0,06583486;0,0658132;25001,61;27260,39
169,5;0,6170874;-0,008722793;27,47669;0,02747669;0;0;0;0,06856526;0,06854177;25216,59;27495,53
171;0,6423783;-0,008794531;28,23452;0,02823452;0;0;0;0,07137536;0,0713499;25912,08;28254,67
172,5;0,6673105;-0,008641946;28,50581;0,02850581;0;0;0;0,07414561;0,07411814;26161,05;28526,95
174;0,6922427;-0,008763739;27,16684;0,02716684;0;0;0;0,07691586;0,07688629;24932,22;27187,73
175,5;0,7175337;-0,008558306;27,53811;0,02753811;0;0;0;0,07972597;0,0796942;25272,96;27560,07
177;0,7421669;-0,008677528;26,94429;0,02694429;0;0;0;0,08246299;0,08242901;24727,98;26966,51
178,5;0,7673383;-0,008456172;26,64041;0,02664041;0;0;0;0,08525981;0,08522348;24449,09;26663,12
180;0,7923901;-0,008577039;26,85228;0,02685228;0;0;0;0,08804335;0,08800461;24643,54;26875,92
181,5;0,8172028;-0,008408155;26,24622;0,02624622;0;0;0;0,09080031;0,09075911;24087,33;26270,06
183;0,8425536;-0,008571144;26,53127;0,02653127;0;0;0;0,09361706;0,09357327;24348,93;26556,11
184,5;0,867127;-0,008421669;25,50768;0,02550768;0;0;0;0,09634744;0,09630106;23409,53;25532,25
186;0,8922984;-0,008644203;26,30579;0,02630579;0;0;0;0,09914427;0,09909515;24141,99;26331,87
187,5;0,91741;-0,008433163;26,63826;0,02663826;0;0;0;0,1019344;0,1018825;24447,12;26665,41
189;0,9421628;-0,008665342;25,35571;0,02535571;0;0;0;0,1046848;0,10463;23270,07;25382,25
190,5;0,9674538;-0,008474433;25,86099;0,025861;0;0;0;0,1074949;0,1074371;23733,79;25888,79
192;0,9921468;-0,008722505;25,3284;0,0253284;0;0;0;0,1102385;0,1101778;23245;25356,32
193,5;1,017258;-0,008462425;25,10777;0,02510777;0;0;0;0,1130287;0,1129649;23042,52;25136,15
195;1,04243;-0,008705304;25,08227;0,02508227;0;0;0;0,1158255;0,1157585;23019,12;25111,32
196,5;1,067123;-0,008469544;24,70115;0,02470115;0;0;0;0,1185692;0,118499;22669,35;24730,44
198;1,092474;-0,008691049;26,0044;0,0260044;0;0;0;0,1213859;0,1213123;23865,39;26035,96
199,5;1,117167;-0,00849918;23,60449;0,02360449;0;0;0;0,1241296;0,1240526;21662,89;23633,79
201;1,142218;-0,008745893;24,44405;0,02444405;0;0;0;0,1269132;0,1268327;22433,4;24475,08
202,5;1,16739;-0,008483566;24,71872;0,02471872;0;0;0;0,12971;0,1296259;22685,47;24750,78
204;1,192083;-0,008727029;23,73483;0,02373483;0;0;0;0,1324537;0,132366;21782,51;23766,26
205,5;1,217434;-0,008589248;24,0811;0,0240811;0;0;0;0,1352704;0,135179;22100,29;24113,67
207;1,242187;-0,008736076;23,41229;0,02341229;0;0;0;0,1380207;0,1379256;21486,51;23444,61
208,5;1,267238;-0,008618705;23,83746;0,02383746;0;0;0;0,1408042;0,1407052;21876,7;23871,02
210;1,292469;-0,008716143;24,24408;0,02424408;0;0;0;0,1436077;0,1435047;22249,87;24278,89
211,5;1,317103;-0,008632416;23,26263;0,02326263;0;0;0;0,1463447;0,1462378;21349,15;23296,67
213;1,342453;-0,008728454;24,78651;0,02478651;0;0;0;0,1491615;0,1490503;22747,68;24823,48
214,5;1,367206;-0,00857633;23,79581;0,02379581;0;0;0;0,1519118;0,1517965;21838,47;23831,96
216;1,392198;-0,008724201;23,51649;0,02351649;0;0;0;0,1546887;0,1545692;21582,13;23552,87
217,5;1,417489;-0,008611412;24,15544;0,02415544;0;0;0;0,1574988;0,1573749;22168,53;24193,48
219;1,442063;-0,008765861;23,8261;0,0238261;0;0;0;0,1602292;0,160101;21866,28;23864,28
220,5;1,467414;-0,008592517;24,56357;0,02456357;0;0;0;0,1630459;0,1629132;22543,09;24603,62
222;1,492166;-0,008717045;23,8358;0,0238358;0;0;0;0,1657963;0,165659;21875,17;23875,31
223,5;1,517099;-0,008596338;22,68701;0,02268701;0;0;0;0,1685665;0,1684246;20820,88;22725,25
225;1,542449;-0,008698249;24,06172;0,02406172;0;0;0;0,1713833;0,1712366;22082,51;24102,95
226,5;1,567023;-0,008620181;23,25073;0,02325073;0;0;0;0,1741136;0,1739622;21338,24;23291,22
228;1,592374;-0,008671809;22,79209;0,02279209;0;0;0;0,1769304;0,1767741;20917,32;22832,42
229,5;1,617246;-0,008565193;22,88861;0,02288861;0;0;0;0,179694;0,1795327;21005,89;22929,74
231;1,642178;-0,008717285;22,30966;0,02230966;0;0;0;0,1824643;0,182298;20474,57;22350,37
232,5;1,667529;-0,008595828;23,14443;0,02314443;0;0;0;0,185281;0,1851096;21240,68;23187,31
234;1,692043;-0,0087407;22,41068;0,02241068;0;0;0;0,1880047;0,1878282;20567,28;22452,81
235,5;1,717334;-0,008551736;22,72509;0,02272509;0;0;0;0,1908148;0,190633;20855,83;22768,45
237;1,742266;-0,008696327;23,39032;0,02339032;0;0;0;0,1935851;0,193398;21466,34;23435,6
238,5;1,767198;-0,008578371;22,2271;0,0222271;0;0;0;0,1963553;0,1961628;20398,8;22270,74
240;1,792489;-0,008693418;23,03822;0,02303822;0;0;0;0,1991654;0,1989674;21143,21;23084,11
241,5;1,817122;-0,008575988;21,60846;0,02160846;0;0;0;0,2019025;0,2016989;19831,05;21652,09
243;1,842294;-0,008713643;22,15398;0,02215398;0;0;0;0,2046993;0,2044901;20331,69;22199,33
244,5;1,867346;-0,008570197;23,16704;0,02316704;0;0;0;0,2074828;0,2072679;21261,43;23215,11
246;1,892158;-0,008730007;22,18897;0,02218897;0;0;0;0,2102398;0,2100191;20363,81;22235,62
247,5;1,917569;-0,008596497;22,79581;0,02279581;0;0;0;0,2130632;0,2128365;20920,73;22844,38
249;1,942142;-0,008716971;22,5302;0,0225302;0;0;0;0,2157936;0,2155611;20676,97;22578,82
250,5;1,967373;-0,008565685;22,95287;0,02295287;0;0;0;0,218597;0,2183584;21064,87;23003,04
252;1,992365;-0,008671682;22,4676;0,0224676;0;0;0;0,2213739;0,2211292;20619,52;22517,34
253,5;2,017118;-0,008584835;22,17355;0,02217355;0;0;0;0,2241242;0,2238734;20349,66;22223,25
255;2,042469;-0,008695131;22,65202;0,02265202;0;0;0;0,226941;0,2266838;20788,77;22703,42
256,5;2,067162;-0,008621737;21,90765;0,02190765;0;0;0;0,2296846;0,2294213;20105,63;21957,97
258;2,092274;-0,008671266;22,15089;0,02215089;0;0;0;0,2324748;0,232205;20328,86;22202,39
259,5;2,117385;-0,008586656;21,82694;0,02182694;0;0;0;0,235265;0,2349887;20031,56;21878,29
261;2,142138;-0,008683314;21,53803;0,02153803;0;0;0;0,2380153;0,2377325;19766,41;21589,3
262,5;2,167548;-0,008583225;22,69455;0,02269455;0;0;0;0,2408387;0,2405492;20827,8;22749,21
264;2,192182;-0,008667724;22,19724;0,02219724;0;0;0;0,2435758;0,2432796;20371,4;22251,31
265,5;2,217233;-0,008615596;21,91812;0,02191812;0;0;0;0,2463593;0,2460563;20115,24;21972,12
267;2,242465;-0,008644519;23,26483;0,02326483;0;0;0;0,2491627;0,2488528;21351,17;23322,8
268,5;2,267158;-0,008624675;21,21437;0,02121437;0;0;0;0,2519064;0,2515896;19469,38;21267,81
270;2,292449;-0,008622006;22,40814;0,02240814;0;0;0;0,2547165;0,2543927;20564,95;22465,21
271,5;2,317201;-0,008536172;21,70493;0,02170493;0;0;0;0,2574668;0,257136;19919,58;21760,81
273;2,342253;-0,008520813;21,26992;0,02126992;0;0;0;0,2602504;0,2599123;19520,36;21325,28
274,5;2,367425;-0,008481376;22,11282;0,02211281;0;0;0;0,2630472;0,2627018;20293,92;22170,98
276;2,392118;-0,008488246;20,48043;0,02048043;0;0;0;0,2657908;0,2654382;18795,8;20534,86
277,5;2,417468;-0,008468822;21,37011;0,02137011;0;0;0;0,2686076;0,2682475;19612,3;21427,51
279;2,442221;-0,008404801;20,84833;0,02084833;0;0;0;0,2713579;0,2709904;19133,44;20904,9
280,5;2,467213;-0,008536944;21,37828;0,02137828;0;0;0;0,2741348;0,2737598;19619,8;21436,89
282;2,492504;-0,008509682;21,70199;0,02170199;0;0;0;0,2769449;0,2765621;19916,88;21762,09
283,5;2,517138;-0,008571281;20,95111;0,02095111;0;0;0;0,279682;0,2792916;19227,77;21009,71
285;2,542428;-0,008602662;21,75049;0,02175049;0;0;0;0,282492;0,2820938;19961,4;21811,94
286,5;2,567181;-0,008625084;20,80624;0,02080624;0;0;0;0,2852424;0,2848363;19094,81;20865,59
288;2,592173;-0,008797674;20,31285;0,02031285;0;0;0;0,2880192;0,2876053;18642,01;20371,35
289,5;2,617464;-0,008710618;21,74428;0,02174428;0;0;0;0,2908294;0,2904073;19955,69;21807,52
291;2,642038;-0,008893687;21,13827;0,02113827;0;0;0;0,2935597;0,2931297;19399,53;21200,32
292,5;2,667329;-0,008765323;21,41719;0,02141719;0;0;0;0,2963699;0,2959316;19655,51;21480,67
294;2,692261;-0,008963717;21,70875;0,02170875;0;0;0;0,2991401;0,2986936;19923,08;21773,68
295,5;2,717133;-0,008943585;20,35856;0,02035856;0;0;0;0,3019037;0,3014489;18683,96;20420,02
297;2,742484;-0,00900761;22,40589;0,02240589;0;0;0;0,3047205;0,3042571;20562,88;22474,16
298,5;2,767057;-0,00899711;21,0975;0,0210975;0;0;0;0,3074508;0,3069792;19362,12;21162,36
300;2,792409;-0,009103669;22,33511;0,02233511;0;0;0;0,3102676;0,3097873;20497,93;22404,41
301,5;2,817221;-0,008973536;20,97686;0,02097685;0;0;0;0,3130246;0,3125357;19251,39;21042,52
303;2,842153;-0,009204056;21,01288;0,02101288;0;0;0;0,3157948;0,3152972;19284,45;21079,23
304,5;2,867444;-0,009087335;21,44671;0,0214467;0;0;0;0,3186049;0,3180984;19682,6;21515,04
306;2,892077;-0,009240648;20,85812;0,02085812;0;0;0;0,3213419;0,3208267;19142,43;20925,15
307,5;2,917309;-0,009104139;21,00128;0,02100128;0;0;0;0,3241454;0,3236212;19273,81;21069,35
309;2,942301;-0,009227659;21,60117;0,02160117;0;0;0;0,3269223;0,3263891;19824,36;21671,79
310,5;2,967173;-0,009179889;20,18065;0,02018065;0;0;0;0,3296859;0,3291436;18520,69;20247,19
312;2,992524;-0,009284075;21,97945;0,02197945;0;0;0;0,3325027;0,3319511;20171,52;22052,53
313,5;3,017097;-0,009158523;20,47514;0,02047514;0;0;0;0,3352331;0,3346724;18790,95;20543,78
315;3,042329;-0,00924571;20,49345;0,02049345;0;0;0;0,3380365;0,3374664;18807,75;20562,72
316,5;3,06738;-0,009149035;21,06138;0,02106138;0;0;0;0,34082;0,3402406;19328,97;21133,16
318;3,092133;-0,009299724;19,96663;0,01996663;0;0;0;0,3435704;0,3429815;18324,26;20035,23
319,5;3,117484;-0,009177362;20,99712;0,02099712;0;0;0;0,3463871;0,3457886;19269,99;21069,85
321;3,142117;-0,009306784;19,67865;0,01967865;0;0;0;0,3491241;0,3485161;18059,97;19747,35
322,5;3,167229;-0,009205814;20,70865;0,02070865;0;0;0;0,3519143;0,3512965;19005,25;20781,53
324;3,1924;-0,009330513;21,2897;0,0212897;0;0;0;0,3547111;0,3540835;19538,5;21365,21
325,5;3,217033;-0,009244783;20,24673;0,02024673;0;0;0;0,3574482;0,3568108;18581,32;20319,1
327;3,242504;-0,009339559;21,58267;0,02158267;0;0;0;0,3602782;0,3596308;19807,38;21660,43
328,5;3,267137;-0,00931402;20,01415;0,02001415;0;0;0;0,3630152;0,3623579;18367,88;20086,81
330;3,292248;-0,009409155;20,32959;0,02032959;0;0;0;0,3658054;0,3651379;18657,37;20403,95
331,5;3,31748;-0,00931725;20,33536;0,02033536;0;0;0;0,3686089;0,3679312;18662,67;20410,32
333;3,342173;-0,009459974;20,26939;0,02026939;0;0;0;0,3713525;0,3706647;18602,12;20344,66
334,5;3,367464;-0,009284508;20,68658;0,02068658;0;0;0;0,3741626;0,3734644;18984,99;20763,98
336;3,392276;-0,009396809;19,89165;0,01989165;0;0;0;0,3769196;0,376211;18255,45;19966,62
337,5;3,417209;-0,009320394;19,54024;0,01954024;0;0;0;0,3796898;0,3789709;17932,95;19614,43
339;3,442499;-0,009406653;20,07357;0,02007357;0;0;0;0,3824999;0,3817703;18422,41;20150,35
340,5;3,467133;-0,009283205;19,42322;0,01942322;0;0;0;0,385237;0,3844968;17825,55;19498,04
342;3,492483;-0,009377776;20,16974;0,02016974;0;0;0;0,3880537;0,3873027;18510,67;20248,01
343,5;3,517296;-0,009242506;19,45591;0,01945591;0;0;0;0,3908107;0,390049;17855,56;19531,95
345;3,542228;-0,00943515;18,94333;0,01894333;0;0;0;0,3935809;0,3928084;17385,14;19017,89
346,5;3,56752;-0,009280003;20,48713;0,02048713;0;0;0;0,3963911;0,3956075;18801,96;20568,34
348;3,592153;-0,0095186;19,88455;0,01988455;0;0;0;0,3991281;0,3983337;18248,94;19963,92
349,5;3,617444;-0,009338334;20,50152;0,02050152;0;0;0;0,4019382;0,4011326;18815,16;20583,93
351;3,642197;-0,009508397;19,63392;0,01963392;0;0;0;0,4046885;0,4038718;18018,92;19713,37
352,5;3,667188;-0,009363766;19,32024;0,01932024;0;0;0;0,4074654;0,4066375;17731,05;19398,96
354;3,69248;-0,00953145;20,25989;0,02025989;0;0;0;0,4102755;0,4094362;18593,41;20343,02
355,5;3,717053;-0,00928176;19,4123;0,0194123;0;0;0;0,4130059;0,4121554;17815,54;19492,48
357;3,742344;-0,009468282;19,86287;0,01986287;0;0;0;0,415816;0,4149538;18229,04;19945,46
358,5;3,767276;-0,009245087;19,97436;0,01997436;0;0;0;0,4185862;0,4177126;18331,36;20057,97
360;3,792148;-0,009470206;18,85039;0,01885039;0;0;0;0,4213498;0,4204646;17299,85;18929,82
361,5;3,817439;-0,009208072;19,84427;0,01984427;0;0;0;0,4241599;0,4232629;18211,97;19928,44
363;3,842132;-0,009430334;19,7782;0,0197782;0;0;0;0,4269036;0,425995;18151,34;19862,63
364,5;3,867423;-0,009204748;19,64111;0,01964111;0;0;0;0,4297137;0,4287931;18025,52;19725,51
366;3,892296;-0,009428819;18,89767;0,01889767;0;0;0;0,4324773;0,4315448;17343,23;18979,4
367,5;3,917169;-0,009219181;19,12736;0,01912736;0;0;0;0,435241;0,4342965;17554,03;19210,61
369;3,942519;-0,009407405;20,28867;0,02028867;0;0;0;0,4380577;0,437101;18619,82;20377,55
370,5;3,967152;-0,009261502;18,5792;0,0185792;0;0;0;0,4407947;0,439826;17050,96;18661,1
372;3,992324;-0,009428129;19,15565;0,01915565;0;0;0;0,4435915;0,4426106;17579,99;19240,62
373,5;4,017315;-0,009301656;19,80967;0,01980967;0;0;0;0,4463684;0,4453751;18180,22;19898,09
375;4,042128;-0,009444324;19,01425;0,01901425;0;0;0;0,4491253;0,4481198;17450,23;19099,65
376,5;4,067539;-0,009277835;20,08752;0,02008752;0;0;0;0,4519488;0,4509305;18435,21;20178,3
378;4,092112;-0,009412577;19,49472;0,01949472;0;0;0;0,4546791;0,4536486;17891,18;19583,36
379,5;4,117344;-0,009205458;20,10259;0,02010259;0;0;0;0,4574826;0,4564393;18449,04;20194,56
381;4,142336;-0,009379867;20,46731;0,02046731;0;0;0;0,4602595;0,4592036;18783,77;20561,52
382,5;4,167148;-0,00927982;19,14796;0,01914796;0;0;0;0,4630165;0,4619478;17572,94;19236,62
384;4,192499;-0,009316176;20,5421;0,0205421;0;0;0;0,4658332;0,4647516;18852,4;20637,79
385,5;4,217132;-0,009250304;19,84677;0,01984677;0;0;0;0,4685702;0,4674759;18214,26;19939,76
387;4,242244;-0,009383189;19,84794;0,01984794;0;0;0;0,4713604;0,470253;18215,34;19941,5
388,5;4,267415;-0,009228748;20,18765;0,02018765;0;0;0;0,4741572;0,4730367;18527,11;20283,37
390;4,292049;-0,0093661;19,48009;0,01948009;0;0;0;0,4768943;0,4757608;17877,75;19572,99
391,5;4,317459;-0,009222191;21,03167;0,02103167;0;0;0;0,4797176;0,4785707;19301,7;21132,56
393;4,342152;-0,009338938;20,11678;0,02011678;0;0;0;0,4824613;0,4813012;18462,07;20213,84
394,5;4,367144;-0,009259931;19,12907;0,01912907;0;0;0;0,4852382;0,4840647;17555,6;19221,89
396;4,392435;-0,00926347;20,63989;0,02063989;0;0;0;0,4880483;0,4868612;18942,14;20740,62
397,5;4,417068;-0,009190135;19,63646;0,01963646;0;0;0;0,4907853;0,4895849;18021,26;19732,83
399;4,442419;-0,009233276;20,36375;0,02036375;0;0;0;0,4936021;0,4923878;18688,72;20464,27
400,5;4,467232;-0,00903204;20,63749;0,02063749;0;0;0;0,4963591;0,4951313;18939,94;20739,92
402;4,492224;-0,009192171;19,24668;0,01924668;0;0;0;0,499136;0,4978944;17663,54;19342,75
403,5;4,517515;-0,00899616;20,45302;0,02045302;0;0;0;0,5019461;0,5006905;18770,65;20555,68
405;4,542088;-0,009124452;19,73484;0,01973484;0;0;0;0,5046764;0,5034072;18111,54;19834,43
406,5;4,567439;-0,008867456;20,4703;0,0204703;0;0;0;0,5074932;0,5062098;18786,51;20574,18
408;4,592251;-0,008941086;20,4098;0,0204098;0;0;0;0,5102502;0,5089528;18730,99;20513,95
409,5;4,617244;-0,008799705;19,48635;0,01948635;0;0;0;0,5130271;0,5117156;17883,5;19586,32
411;4,642474;-0,008861608;20,60822;0,02060822;0;0;0;0,5158305;0,5145046;18913,08;20714,52
412,5;4,667167;-0,008766469;19,62232;0,01962232;0;0;0;0,5185741;0,5172342;18008,28;19724,07
414;4,692399;-0,008747792;20,59863;0,02059863;0;0;0;0,5213777;0,5200232;18904,28;20706,02
415,5;4,717271;-0,00864259;20,52976;0,02052976;0;0;0;0,5241413;0,5227724;18841,08;20637,37
417;4,742143;-0,008741459;18,63235;0,01863235;0;0;0;0,5269048;0,5255215;17099,74;18730,53
418,5;4,767554;-0,008644713;20,63181;0,02063181;0;0;0;0,5297282;0,5283301;18934,73;20741,1
420;4,792068;-0,008749894;19,27908;0,01927908;0;0;0;0,532452;0,5310394;17693,27;19381,73
421,5;4,817358;-0,008620257;19,5931;0,0195931;0;0;0;0,535262;0,5338346;17981,46;19697,97
423;4,842291;-0,008703129;19,97735;0,01997735;0;0;0;0,5380324;0,5365901;18334,1;20084,83
424,5;4,867163;-0,00866532;19,54993;0,01954993;0;0;0;0,5407959;0,5393389;17941,84;19655,66
426;4,892514;-0,008683916;20,63646;0,02063646;0;0;0;0,5436127;0,5421404;18939;20748,64
427,5;4,917148;-0,00859019;19,0768;0,0190768;0;0;0;0,5463498;0,5448627;17507,63;19181,03
429;4,942378;-0,008694867;18,32225;0,01832225;0;0;0;0,5491531;0,5476508;16815,15;18422,87
430,5;4,967311;-0,008590312;18,67557;0,01867557;0;0;0;0,5519234;0,5504059;17139,4;18778,64
432;4,992183;-0,008682965;17,57289;0,01757289;0;0;0;0,554687;0,5531543;16127,42;17670,36
433,5;5,017534;-0,008538571;18,89483;0,01889483;0;0;0;0,5575038;0,5559555;17340,63;19000,17
435;5,042167;-0,00858905;17,53153;0,01753153;0;0;0;0,5602408;0,5586773;16089,47;17629,75
436,5;5,067279;-0,008500526;17,56584;0,01756584;0;0;0;0,563031;0,5614519;16120,96;17664,74
438;5,09239;-0,00856477;17,09912;0,01709912;0;0;0;0,5658211;0,5642264;15692,63;17195,87
439,5;5,117203;-0,008574777;16,58136;0,01658136;0;0;0;0,5685781;0,5669678;15217,45;16675,64
441;5,142494;-0,008566494;17,63563;0,01763563;0;0;0;0,5713882;0,569762;16185,01;17736,4
442,5;5,167127;-0,008574331;15,81164;0,01581164;0;0;0;0,5741253;0,5724834;14511,04;15902,41
444;5,192299;-0,008564984;15,50897;0,01550897;0;0;0;0,5769221;0,5752643;14233,28;15598,45
445,5;5,21735;-0,008559571;15,75936;0,01575937;0;0;0;0,5797056;0,5780318;14463,07;15850,72
447;5,242103;-0,00851365;15,41965;0,01541965;0;0;0;0,5824559;0,5807662;14151,3;15509,47
448,5;5,267514;-0,008511606;15,82705;0,01582705;0;0;0;0,5852793;0,5835732;14525,19;15919,69
450;5,292147;-0,008501223;14,57089;0,01457089;0;0;0;0,5880163;0,5862943;13372,36;14656,57
451,5;5,317258;-0,008453576;14,5636;0,0145636;0;0;0;0,5908065;0,5890681;13365,66;14649,64
453;5,34243;-0,008454219;15,16182;0,01516182;0;0;0;0,5936034;0,5918485;13914,68;15251,82
454,5;5,367123;-0,00844076;14,57069;0,01457069;0;0;0;0,596347;0,5945759;13372,17;14657,58
456;5,392414;-0,008546959;14,8573;0,0148573;0;0;0;0,5991571;0,5973693;13635,21;14946,32
457,5;5,417107;-0,008487212;14,20989;0,01420989;0;0;0;0,6019008;0,6000966;13041,05;14295,42
459;5,442159;-0,008622681;13,58347;0,01358347;0;0;0;0,6046844;0,6028635;12466,16;13665,61
460,5;5,46739;-0,008542954;14,78541;0,01478541;0;0;0;0,6074878;0,60565;13569,23;14875,22
462;5,492024;-0,00870924;13,76887;0,01376886;0;0;0;0,6102248;0,6083705;12636,3;13852,89
463,5;5,517374;-0,008588462;14,38182;0,01438182;0;0;0;0,6130416;0,6111701;13198,84;14469,99
465;5,542187;-0,00873119;13,48133;0,01348133;0;0;0;0,6157985;0,6139102;12372,41;13564,34
466,5;5,567179;-0,008694987;13,51598;0,01351598;0;0;0;0,6185755;0,6166701;12404,21;13599,58
468;5,592529;-0,008790653;14,14778;0,01414778;0;0;0;0,6213921;0,6194695;12984,05;14235,69
469,5;5,617103;-0,008724644;12,91344;0,01291344;0;0;0;0,6241226;0,622183;11851,24;12994,04
471;5,642454;-0,008825631;13,89959;0,01389959;0;0;0;0,6269394;0,6249823;12756,27;13986,73
472,5;5,667266;-0,008747963;13,14294;0,01314294;0;0;0;0,6296962;0,6277219;12061,86;13225,7
474;5,692199;-0,008967146;13,01564;0,01301564;0;0;0;0,6324665;0,6304748;11945,03;13097,96
475,5;5,71749;-0,008907268;13,53218;0,01353218;0;0;0;0,6352767;0,6332673;12419,08;13618,14
477;5,742063;-0,009111484;12,15366;0,01215366;0;0;0;0,638007;0,6359804;11153,95;12231,2
478,5;5,767354;-0,008994502;13,29001;0,01329001;0;0;0;0,6408171;0,6387726;12196,83;13375,17
480;5,792286;-0,009165151;14,04779;0,01404779;0;0;0;0,6435874;0,6415251;12892,28;14138,2
481,5;5,817159;-0,009168633;12,75193;0,01275193;0;0;0;0,646351;0,6442711;11703,02;12834,35
483;5,84251;-0,009282225;13,41178;0,01341178;0;0;0;0,6491678;0,6470697;12308,59;13498,84
484,5;5,867083;-0,009239718;13,16971;0,01316971;0;0;0;0,6518981;0,6497824;12086,43;13255,56
486;5,892374;-0,009339394;14,53438;0,01453438;0;0;0;0,6547082;0,6525743;13338,85;14629,54
487,5;5,917306;-0,009328735;13,51172;0,01351172;0;0;0;0,6574784;0,6553264;12400,31;13600,56
489;5,942179;-0,009459681;12,59659;0,01259659;0;0;0;0,6602421;0,6580721;11560,45;12679,76
490,5;5,96747;-0,009283473;12,93194;0,01293194;0;0;0;0,6630522;0,6608637;11868,22;13017,69
492;5,992103;-0,009451429;12,5497;0,0125497;0;0;0;0,6657892;0,6635826;11517,42;12633,26
493,5;6,27975;-0,009252666;12,53081;0,01253081;0;0;0;0,69775;0,695327;11500,08;12618,24
495;6,779531;-0,009429391;12,7764;0,0127764;0;0;0;0,7532812;0,7504582;11725,48;12872,65
496,5;7,279371;-0,009327561;12,59351;0,0125935;0;0;0;0,8088189;0,8055656;11557,62;12695,36
498;7,77939;-0,009395519;12,27019;0,01227019;0;0;0;0,8643767;0,8606624;11260,9;12376,25
499,5;8,279469;-0,009231452;11,70378;0,01170378;0;0;0;0,919941;0,9157353;10741,08;11811,44
501;8,779489;-0,009263209;12,19169;0,01219169;0;0;0;0,9754987;0,9707715;11188,85;12310,62
502,5;9,279449;-0,009130167;12,49709;0,01249709;0;0;0;1,03105;1,025771;11469,13;12625,94
504;9,779468;-0,009193158;12,3324;0,0123324;0;0;0;1,086608;1,080746;11317,99;12466,4
505,5;10,27949;-0,009002512;12,39725;0,01239725;0;0;0;1,142165;1,135692;11377,5;12538,84
507;10,77939;-0,009108639;12,2118;0,0122118;0;0;0;1,19771;1,190594;11207,31;12358,06
508,5;11,27941;-0,008921812;11,96777;0,01196777;0;0;0;1,253267;1,245479;10983,36;12117,76
510;11,77955;-0,008961404;12,58592;0,01258592;0;0;0;1,308838;1,300347;11550,66;12750,65
511,5;12,27945;-0,008780223;11,59395;0,01159395;0;0;0;1,364383;1,355159;10640,28;11752,13
513;12,77947;-0,008858236;13,52797;0,01352797;0;0;0;1,419941;1,409954;12415,22;13720,06
514,5;13,27943;-0,008581667;13,16256;0,01316256;0;0;0;1,475492;1,464712;12079,87;13356,77
516;13,77951;-0,008633217;11,08098;0,01108098;0;0;0;1,531056;1,519454;10169,51;11250,64
517,5;14,27941;-0,008329621;12,80939;0,01280939;0;0;0;1,586601;1,574146;11755,75;13012,63
519;14,77954;-0,008513603;12,55631;0,01255631;0;0;0;1,642172;1,628834;11523,49;12762,51
520,5;15,2795;-0,008364712;12,37223;0,01237223;0;0;0;1,697723;1,683472;11354,55;12582,28
522;15,7794;-0,00865972;11,6078;0,0116078;0;0;0;1,753267;1,738074;10653;11811,32
523,5;16,27924;-0,00856849;11,07883;0,01107883;0;0;0;1,808805;1,79264;10167,53;11279,22
525;16,77938;-0,008768665;10,70055;0,01070055;0;0;0;1,864376;1,847209;9820,37;10900,05
526,5;17,27952;-0,008515778;10,42755;0,01042754;0;0;0;1,919947;1,901748;9569,823;10627,75
528;17,77954;-0,008688765;11,60237;0,01160237;0;0;0;1,975504;1,956245;10648,01;11831,57
529,5;18,27944;-0,008285806;10,69879;0,01069879;0;0;0;2,031049;2,010698;9818,753;10916,08
531;18,77946;-0,0084957;9,589597;0,009589598;0;0;0;2,086607;2,065135;8800,801;9789,694
532,5;19,27942;-0,008205193;9,737159;0,009737159;0;0;0;2,142158;2,119536;8936,226;9945,745
534;19,77932;-0,008427557;10,74127;0,01074127;0;0;0;2,197702;2,173901;9857,741;10977,33
535,5;20,2794;-0,008172923;9,615292;0,009615292;0;0;0;2,253267;2,228255;8824,383;9831,95
537;20,77954;-0,00836544;10,27675;0,01027675;0;0;0;2,308838;2,282587;9431,434;10514,03
538,5;21,2795;-0,008159286;9,069874;0,009069874;0;0;0;2,364389;2,33687;8323,828;9284,321
540;21,77946;-0,008431076;8,622929;0,008622929;0;0;0;2,41994;2,391123;7913,647;8831,599
541,5;22,27954;-0,008446333;8,383452;0,008383452;0;0;0;2,475504;2,44536;7693,868;8590,985
543;22,77944;-0,008740413;8,442478;0,008442477;0;0;0;2,531049;2,499548;7748,038;8656,161
544,5;23,2794;-0,008803623;7,982709;0,007982709;0;0;0;2,5866;2,553713;7326,088;8189,19
546;23,77942;-0,009047518;7,183671;0,007183671;0;0;0;2,642157;2,607855;6592,775;7373,475
547,5;24,27949;-0,009032165;7,739024;0,007739024;0;0;0;2,697721;2,661975;7102,447;7947,801
549;24,77946;-0,009238991;7,605067;0,007605067;0;0;0;2,753273;2,716052;6979,509;7814,456
550,5;25,27935;-0,009133937;7,815228;0,007815228;0;0;0;2,808817;2,770093;7172,383;8034,743
552;25,77943;-0,009205429;6,905872;0,006905872;0;0;0;2,864382;2,824125;6337,827;7103,682
553,5;26,27951;-0,008997399;7,971208;0,007971209;0;0;0;2,919946;2,878128;7315,533;8203,963
554,26;26,53272;-0,008811359;7,693213;0,007693213;0;0;0;2,948081;2,90546;7060,405;7920,016